File: cleaning/SCM-concrete-global.csv
Mix ID, Cement(kg/m3), Water(kg/m3),Coarse aggregate(kg/m3),Fine aggregate(kg/m3), FA (kg/m3),SF (kg/m3),GGBFS (kg/m3),SP (kg/m3),Cylinder compressive strength (MPa),Splitting tensile strength (MPa),Flexural strength (MPa),Elastic modulus (GPa),Chloride permeability (Coulomb) 28d,Chloride permeability (Coulomb) 90d,Chloride permeability (Coulomb) 180d,Drying shrinkage (με) 7d,Drying shrinkage (με) 28d,Drying shrinkage (με) 90d,Drying shrinkage (με)120d,Creep (με) 28d,Creep (με) 90d,Creep (με) 150d,Abrasion (mm) 28 d,Reference
R1_F40,300,150,1097,673,200,0,0,4.5,52.7,2.52,-1,-1,-1,-1,-1,-1,-1,-1,-1,-1,-1,-1,-1,https://doi.org/10.1016/j.conbuildmat.2017.05.080
R1_F70,150,150,1097,673,350,0,0,4,35.7,2.05,-1,-1,-1,-1,-1,-1,-1,-1,-1,-1,-1,-1,-1,
R1_S55,225,150,1097,673,0,0,275,6,51,2.65,-1,-1,-1,-1,-1,-1,-1,-1,-1,-1,-1,-1,-1,
R1_F40S15,225,150,1097,673,200,0,75,5,48.45,2.5,-1,-1,-1,-1,-1,-1,-1,-1,-1,-1,-1,-1,-1,
R2_60% FA,41.5,168,820,932,373.5,0,0,1.69,34.1,-1,-1,-1,-1,-1,-1,-1,-1,-1,-1,-1,-1,-1,-1,https://doi.org/10.1016/j.conbuildmat.2012.02.034
R2_90% FA,166,168,820,932,249,0,0,1.69,10.9,-1,-1,-1,-1,-1,-1,-1,-1,-1,-1,-1,-1,-1,-1,
R2_80% SL,83,168,820,932,0,0,332,1.69,57.6,-1,-1,-1,-1,-1,-1,-1,-1,-1,-1,-1,-1,-1,-1,
R2_60% 25FA-75SL,166,168,820,932,62.25,0,186.75,1.69,54.2,-1,-1,38,-1,-1,-1,-1,-1,-1,-1,-1,-1,-1,-1,
R2_90% 25FA-75SL,41.5,168,820,932,93.375,0,280.125,1.69,47.2,-1,-1,39.7,-1,-1,-1,-1,-1,-1,-1,-1,-1,-1,-1,
R2_80% 50FA-50SL,83,168,820,932,166,0,166,1.69,41.4,-1,-1,41.5,-1,-1,-1,-1,-1,-1,-1,-1,-1,-1,-1,
R2_60% 75FA-25SL,166,168,820,932,186.75,0,62.25,1.69,49,-1,-1,38,-1,-1,-1,-1,-1,-1,-1,-1,-1,-1,-1,
R2_90% 75FA-25SL,41.5,168,820,932,280.125,0,93.375,1.69,32,-1,-1,40,-1,-1,-1,-1,-1,-1,-1,-1,-1,-1,-1,
R3_A-50-50-2,260,206.7,849.4,785,130,0,130,5.43,28.48,-1,-1,-1,-1,-1,-1,-1,-1,-1,-1,-1,-1,-1,-1,
R3_A-50-75-1,130,206.7,849.4,785,390,0,0,5.94,6.09,-1,-1,-1,-1,-1,-1,-1,-1,-1,-1,-1,-1,-1,-1,
R3_A-50-75-3,130,206.7,849.4,785,156,78,156,6.8,30.21,-1,-1,-1,-1,-1,-1,-1,-1,-1,-1,-1,-1,-1,-1,
R3_A-100-50-2,260,214.9,832,785,130,0,130,5.67,32.62,2.75,-1,-1,-1,-1,-1,-1,400,471,478,-1,-1,-1,-1,
R3_A-100-75-1,130,214.9,832,785,390,0,0,7.4,11.59,0.96,-1,-1,-1,-1,-1,-1,405,500,500,-1,-1,-1,-1,
R3_A-100-75-3,130,214.9,832,785,156,78,156,7.57,36.34,2.89,-1,-1,-1,-1,-1,-1,440,550,551,-1,-1,-1,-1,
R4_PLC2-0.45-20 %FAF,290,163,1048,670,72.5,0,0,0,36,-1,-1,-1,-1,-1,-1,-1,-1,-1,-1,-1,-1,-1,-1,
R4_PLC4-0.45-20 %FAF,290,163,1048,670,72.5,0,0,0,28,-1,-1,-1,-1,-1,-1,-1,-1,-1,-1,-1,-1,-1,-1,
R4_PLC6-0.45-20 %FAF,290,163,1048,670,72.5,0,0,0,36,-1,-1,-1,-1,-1,-1,-1,-1,-1,-1,-1,-1,-1,-1,
R4_PLC1-0.45-30 %FAC,253.75,163,1048,670,108.75,0,0,0,43,4.128,-1,-1,-1,-1,-1,-1,-1,-1,-1,-1,-1,-1,-1,
R4_PLC3-0.45-30 %FAC,253.75,163,1048,670,108.75,0,0,0,34.5,3.46725,-1,-1,-1,-1,-1,-1,-1,-1,-1,-1,-1,-1,-1,
R4_PLC5-0.45-30 %FAC,253.75,163,1048,670,108.75,0,0,0,44.5,3.58225,-1,-1,-1,-1,-1,-1,-1,-1,-1,-1,-1,-1,-1,
R4_PLC7-0.45-30 %FAC,253.75,163,1048,670,108.75,0,0,0,38,3.8038,-1,-1,-1,-1,-1,-1,-1,-1,-1,-1,-1,-1,-1,
R4_PLC3-0.45-35 %slag,235.62,163,1048,670,0,0,126.88,0,38.5,-1,-1,-1,-1,-1,-1,-1,-1,-1,-1,-1,-1,-1,-1,
R4_PLC7-0.45-35 %slag,235.62,163,1048,670,0,0,126.88,0,39.5,3.91,-1,-1,-1,-1,-1,-1,-1,-1,-1,-1,-1,-1,-1,
R4_PLC3-0.45-25%FAC-5% SF,253.75,163,1048,670,90.62,18.12,0,0,31,-1,-1,-1,-1,-1,-1,-1,-1,-1,-1,-1,-1,-1,-1,
R4_PLC7-0.45-25%FAC-5% SF,253.75,163,1048,670,90.62,18.12,0,0,35,3.53,-1,-1,-1,-1,-1,-1,-1,-1,-1,-1,-1,-1,-1,
R5_C75-FA25,325.18,260.14,810,795,84.62,0,0,0,18.02,-1,-1,-1,-1,-1,-1,-1,-1,-1,-1,-1,-1,-1,-1,
R5_C95-SF5,411.89,260.14,810,795,0,16.08,0,0,34.77,-1,-1,-1,-1,-1,-1,-1,-1,-1,-1,-1,-1,-1,-1,
R5_C85-SF15,368.53,260.14,810,795,0,48.25,0,0,39.78,-1,-1,-1,-1,-1,-1,-1,-1,-1,-1,-1,-1,-1,-1,
R6_8SF,418.5,200,774,875,0,36,0,7.5,64,-1,-1,-1,966,685,-1,-1,-1,-1,-1,-1,-1,-1,-1,
R6_8SF18BFS,337,200,774,874,0,36,81.5,6.7,66.5,-1,-1,-1,614,529,-1,-1,-1,-1,-1,-1,-1,-1,-1,
R6_36FAC,291,200,773,872,163.5,0,0,6.35,56.5,-1,-1,-1,3240,2286,-1,-1,-1,-1,-1,-1,-1,-1,-1,
R6_18FAF,373,200,772,872,81.5,0,0,4.67,41,-1,-1,-1,4901,1171,-1,-1,-1,-1,-1,-1,-1,-1,-1,
R6_36FAF18BFS,209.5,200,761,858,163.5,0,81.5,4.31,35.8,-1,-1,-1,4204,660,-1,-1,-1,-1,-1,-1,-1,-1,-1,
R6_8SF18FAC18BFS,255.5,200,769,868,81.5,36,81.5,7,56.8,-1,-1,-1,511,359,-1,-1,-1,-1,-1,-1,-1,-1,-1,
R7_50%RCA+45%slag+5%SF,228,182,1100,770,0,23,228,1.82,46,4.5,-1,26.7,-1,-1,-1,-1,-1,-1,-1,-1,-1,-1,-1,
R7_50%RCA+35%slag+15%SF,228,182,1100,770,0,68,159,2.8,58,4.9,-1,26.8,-1,-1,-1,-1,-1,-1,-1,-1,-1,-1,-1,
R8_C8F2,594.4,185.8,1049.4,449.3,148.6,0,0,3,65,-1,-1,-1,886,-1,-1,376,460,-1,550,-1,-1,-1,-1,
R8_C6F4,438.2,182.6,1031.4,441.6,292.1,0,0,2,58,-1,-1,-1,959,-1,-1,300,400,-1,455,-1,-1,-1,-1,
R9_S20F0M0,440,198,797.5,962.5,0,110,0,8.25,45.1,-1,-1,-1,-1,-1,-1,-1,-1,-1,-1,-1,-1,-1,-1,https://doi.org/10.1016/j.cscm.2023.e02395
R10_SF6,470,175,1203,647,0,30,0,9.78,55.25,-1,-1,35.5,-1,-1,-1,-1,-1,-1,-1,-1,-1,-1,-1,https://doi.org/10.1016/S0958-9465(03)00017-9
R10_SF15,425,175,1203,647,0,75,0,13.34,59.5,-1,-1,38.1,-1,-1,-1,-1,-1,-1,-1,-1,-1,-1,-1,
R11_SF10,449,142,1155,622,0,50,0,5,68,-1,-1,-1,-1,-1,-1,-1,-1,-1,-1,-1,-1,-1,-1,
R11_SF20,478,121,1119,603,0,120,0,12,102,-1,-1,-1,-1,-1,-1,-1,-1,-1,-1,-1,-1,-1,-1,
R12_SF10-0.27,450,135,1050,715,0,50,0,43,81.175,-1,-1,-1,-1,-1,-1,-1,-1,-1,-1,-1,-1,-1,-1,
R12_SF5-0.3,475,150,1050,685,0,25,0,19,77.35,-1,-1,-1,-1,-1,-1,-1,-1,-1,-1,-1,-1,-1,-1,
R12_SF15-0.3,425,150,1050,680,0,75,0,19,83.725,-1,-1,-1,-1,-1,-1,-1,-1,-1,-1,-1,-1,-1,-1,
R12_SF10-0.33,450,165,1050,685,0,50,0,12,76.075,-1,-1,-1,-1,-1,-1,-1,-1,-1,-1,-1,-1,-1,-1,
R13_W35SF6,441,164,1115,653,0,28,0,2.9,73.9,-1,-1,-1,-1,-1,-1,-1,-1,-1,-1,-1,-1,-1,-1,https://doi.org/10.1016/j.cemconcomp.2007.06.003
R13_W30SF10,450,149,1168,615,0,45,0,3.7,84.2,-1,-1,-1,-1,-1,-1,-1,-1,-1,-1,-1,-1,-1,-1,
R14_w/cm ratio 0.26_3,468,135.2,1146,667,0,52,0,18.2,79.22,6.37,10.4,-1,-1,-1,-1,-1,-1,-1,-1,-1,-1,-1,-1,
R14_w/cm ratio 0.26_5,416,135.2,1146,667,0,104,0,18.2,79.9,6.51,11.1,-1,-1,-1,-1,-1,-1,-1,-1,-1,-1,-1,-1,
R14_w/cm ratio 0.3_2,484.5,153,1122.5,653,0,25.5,0,17.85,63.75,5.61,9.03,-1,-1,-1,-1,-1,-1,-1,-1,-1,-1,-1,-1,
R14_w/cm ratio 0.3_4,433.5,153,1122.5,653,0,76.5,0,17.85,71.99,6.25,9.95,-1,-1,-1,-1,-1,-1,-1,-1,-1,-1,-1,-1,
R14_w/cm ratio 0.3_6,382.5,153,1122.5,653,0,127.5,0,17.85,71.66,5.61,12.5,-1,-1,-1,-1,-1,-1,-1,-1,-1,-1,-1,-1,
R14_w/cm ratio 0.34_3,450,170,1100,640,0,50,0,17.5,61.2,5.71,8.85,-1,-1,-1,-1,-1,-1,-1,-1,-1,-1,-1,-1,
R14_w/cm ratio 0.34_5,400,170,1100,640,0,100,0,17.5,68.85,6.05,10.87,-1,-1,-1,-1,-1,-1,-1,-1,-1,-1,-1,-1,
R14_w/cm ratio 0.38_2,465.5,186.2,1078,628,0,24.5,0,17.15,51,4.51,7.21,-1,-1,-1,-1,-1,-1,-1,-1,-1,-1,-1,-1,
R14_w/cm ratio 0.38_4,416.5,186.2,1078,628,0,73.5,0,17.15,57.375,5.2,9,-1,-1,-1,-1,-1,-1,-1,-1,-1,-1,-1,-1,
R14_w/cm ratio 0.38_6,367.5,186.2,1078,628,0,122.5,0,17.15,60.95,5.25,9.36,-1,-1,-1,-1,-1,-1,-1,-1,-1,-1,-1,-1,
R14_w/cm ratio 0.42_2,456,201.6,1058,616,0,24,0,16.8,42.67,4.4,6.8,-1,-1,-1,-1,-1,-1,-1,-1,-1,-1,-1,-1,
R14_w/cm ratio 0.42_4,408,201.6,1058,616,0,72,0,16.8,51,4.5,7.4,-1,-1,-1,-1,-1,-1,-1,-1,-1,-1,-1,-1,
R14_w/cm ratio 0.42_6,360,201.6,1058,616,0,120,0,16.8,54.23,4.51,8.34,-1,-1,-1,-1,-1,-1,-1,-1,-1,-1,-1,-1,
R15_S10,720,231,710,730,0,80,0,33,92.91,-1,-1,51.3,-1,-1,-1,-1,-1,-1,-1,-1,-1,-1,-1,https://doi.org/10.1016/j.cemconcomp.2019.05.012
R15_S30,560,273,710,730,0,240,0,33,83.05,-1,-1,55.9,-1,-1,-1,-1,-1,-1,-1,-1,-1,-1,-1,
R15_F20,640,185,710,730,160,0,0,32,102.68,-1,-1,56.2,-1,-1,-1,-1,-1,-1,-1,-1,-1,-1,-1,
R16_F50,275,176,504,900,275,0,0,5.5,25.5,1.98,2.7,-1,-1,-1,-1,200,300,500,497,-1,-1,-1,-1,https://doi.org/10.1016/j.jclepro.2016.06.082
R17_2,212.1,184.2,1057.6,779.3,125.6,0,0,5.7,21.81,-1,-1,-1,-1,-1,-1,-1,-1,-1,-1,-1,-1,-1,-1,
R17_4,190.3,165.3,1079,798.9,124.8,0,0,9.9,26.67,-1,-1,-1,-1,-1,-1,-1,-1,-1,-1,-1,-1,-1,-1,
R17_6,213.5,159.2,1043.6,771.9,124.8,0,0,11.7,44.61,-1,-1,-1,-1,-1,-1,-1,-1,-1,-1,-1,-1,-1,-1,
R17_8,251.4,192.9,1043.6,754.3,124.8,0,0,5.8,36.99,-1,-1,-1,-1,-1,-1,-1,-1,-1,-1,-1,-1,-1,-1,
R17_10,307,193.5,968,799.5,124.8,0,0,0,29.33,-1,-1,-1,-1,-1,-1,-1,-1,-1,-1,-1,-1,-1,-1,
R17_12,295,185.3,1069,769.4,124.8,0,0,0,27.19,-1,-1,-1,-1,-1,-1,-1,-1,-1,-1,-1,-1,-1,-1,
R17_14,302,202.7,974,817,124.8,0,0,0,26.11,-1,-1,-1,-1,-1,-1,-1,-1,-1,-1,-1,-1,-1,-1,
R17_16,220.9,142.5,896,896,124.8,0,0,0,72.11,-1,-1,-1,-1,-1,-1,-1,-1,-1,-1,-1,-1,-1,-1,
R17_18,148,158.4,1002,830,124.8,0,0,16,19.95,-1,-1,-1,-1,-1,-1,-1,-1,-1,-1,-1,-1,-1,-1,
R17_20,290,220.5,898,713,124.8,0,0,11,9.59,-1,-1,-1,-1,-1,-1,-1,-1,-1,-1,-1,-1,-1,-1,
R17_22,148.1,159.2,1001.8,830.1,124.6,0,0,16.1,18.98,-1,-1,-1,-1,-1,-1,-1,-1,-1,-1,-1,-1,-1,-1,
R17_24,276.4,217.4,897.7,712.9,124.8,0,0,11,9.55,-1,-1,-1,-1,-1,-1,-1,-1,-1,-1,-1,-1,-1,-1,
R17_26,190.8,185.1,979.5,811,124.8,0,0,11.1,15.21,-1,-1,-1,-1,-1,-1,-1,-1,-1,-1,-1,-1,-1,-1,
R17_28,188.7,182.4,1023.3,732,124.8,0,0,11.7,20.01,-1,-1,-1,-1,-1,-1,-1,-1,-1,-1,-1,-1,-1,-1,
R17_30,318.9,212.7,860.5,725,124.8,0,0,5.7,36.09,-1,-1,-1,-1,-1,-1,-1,-1,-1,-1,-1,-1,-1,-1,
R17_32,199.8,185.4,849.3,856.5,124.8,0,0,12.6,18.01,-1,-1,-1,-1,-1,-1,-1,-1,-1,-1,-1,-1,-1,-1,
R18_2,425,140,1041,740,50,25,0,12.23,61.97,-1,-1,-1,-1,-1,-1,-1,-1,-1,-1,-1,-1,-1,-1,https://doi.org/10.1016/j.conbuildmat.2022.127082
R18_4,275,140,887,870,150,75,0,14.508,62.14,-1,-1,-1,-1,-1,-1,-1,-1,-1,-1,-1,-1,-1,-1,
R18_6,325,160,1101,660,150,25,0,9.784,50.92,-1,-1,-1,-1,-1,-1,-1,-1,-1,-1,-1,-1,-1,-1,
R18_8,375,160,948,790,50,75,0,10.89,61.37,-1,-1,-1,-1,-1,-1,-1,-1,-1,-1,-1,-1,-1,-1,
R18_10,375,180,876,860,100,25,0,4.874,55.42,-1,-1,-1,-1,-1,-1,-1,-1,-1,-1,-1,-1,-1,-1,
R18_12,425,180,999,710,0,75,0,6.0275,55.51,-1,-1,-1,-1,-1,-1,-1,-1,-1,-1,-1,-1,-1,-1,
R18_14,475,200,937,780,0,25,0,3.6585,45.47,-1,-1,-1,-1,-1,-1,-1,-1,-1,-1,-1,-1,-1,-1,
R18_16,325,200,1050,630,100,75,0,4.806,40.89,-1,-1,-1,-1,-1,-1,-1,-1,-1,-1,-1,-1,-1,-1,
R19_2,151.8,167.5,944,694.6,138.7,0,178.1,18.3,36.35,-1,-1,-1,-1,-1,-1,-1,-1,-1,-1,-1,-1,-1,-1,
R19_4,132,179,867,736,161,0,207,5,33.3,-1,-1,-1,-1,-1,-1,-1,-1,-1,-1,-1,-1,-1,-1,
R19_6,178,179.9,1007.3,746.8,118.6,0,129.8,3.6,39.16,-1,-1,-1,-1,-1,-1,-1,-1,-1,-1,-1,-1,-1,-1,
R19_8,149,183,953,780,92,0,118,7,23.52,-1,-1,-1,-1,-1,-1,-1,-1,-1,-1,-1,-1,-1,-1,
R19_10,237,247,853,695,71,0,92,6,28.63,-1,-1,-1,-1,-1,-1,-1,-1,-1,-1,-1,-1,-1,-1,
R19_12,397,167,967,633,158,0,17.2,20.8,55.65,-1,-1,-1,-1,-1,-1,-1,-1,-1,-1,-1,-1,-1,-1,
R19_14,160,182,824,879,122,0,128,6.4,39.4,-1,-1,-1,-1,-1,-1,-1,-1,-1,-1,-1,-1,-1,-1,
R19_16,162,202,820,680,164,0,214,10,30.65,-1,-1,-1,-1,-1,-1,-1,-1,-1,-1,-1,-1,-1,-1,
R19_18,218.2,140.8,1075.7,792.7,123.8,0,54.6,11.9,55.51,-1,-1,-1,-1,-1,-1,-1,-1,-1,-1,-1,-1,-1,-1,
R19_20,160,203,829,710,146,0,188,11,32.84,-1,-1,-1,-1,-1,-1,-1,-1,-1,-1,-1,-1,-1,-1,
R19_22,446,162,967,712,79,0,24,11.6,44.42,-1,-1,-1,-1,-1,-1,-1,-1,-1,-1,-1,-1,-1,-1,
R19_24,276,180,870,768,90,0,116,9,44.28,-1,-1,-1,-1,-1,-1,-1,-1,-1,-1,-1,-1,-1,-1,
R19_26,159,201,848,669,161,0,209,7,30.88,-1,-1,-1,-1,-1,-1,-1,-1,-1,-1,-1,-1,-1,-1,
R19_28,184,213,923,623,190,0,86,6,22.93,-1,-1,-1,-1,-1,-1,-1,-1,-1,-1,-1,-1,-1,-1,
R19_30,144,192,814,805,133,0,170,8,29.87,-1,-1,-1,-1,-1,-1,-1,-1,-1,-1,-1,-1,-1,-1,
R19_32,213.8,181.7,1066,785.5,24.5,0,98.1,6.7,40.23,-1,-1,-1,-1,-1,-1,-1,-1,-1,-1,-1,-1,-1,-1,
R19_34,236.9,246.9,852.9,695.4,71.5,0,91.7,6,28.63,-1,-1,-1,-1,-1,-1,-1,-1,-1,-1,-1,-1,-1,-1,
R19_36,277,190.6,946.5,665.6,91,0,116.8,7,43.58,-1,-1,-1,-1,-1,-1,-1,-1,-1,-1,-1,-1,-1,-1,
R19_38,153,178,867,824,113,0,145,8,26.23,-1,-1,-1,-1,-1,-1,-1,-1,-1,-1,-1,-1,-1,-1,
R19_40,143.7,191.6,814.1,805.3,132.6,0,170.2,8.5,29.87,-1,-1,-1,-1,-1,-1,-1,-1,-1,-1,-1,-1,-1,-1,
R19_42,173.8,172.3,1007.2,746.6,159.9,0,93.4,9.7,37.81,-1,-1,-1,-1,-1,-1,-1,-1,-1,-1,-1,-1,-1,-1,
R19_44,149,193,892,780,109,0,139,6,23.69,-1,-1,-1,-1,-1,-1,-1,-1,-1,-1,-1,-1,-1,-1,
R19_46,266,178,910,745,87,0,112,10,39.42,-1,-1,-1,-1,-1,-1,-1,-1,-1,-1,-1,-1,-1,-1,
R19_48,168,121.8,1058.7,780.1,163.8,0,42.1,5.7,24.24,-1,-1,-1,-1,-1,-1,-1,-1,-1,-1,-1,-1,-1,-1,
R19_50,277,191,946,666,91,0,117,7,43.57,-1,-1,-1,-1,-1,-1,-1,-1,-1,-1,-1,-1,-1,-1,
R19_52,334,189,967,633,158,0,17.6,15.3,44.33,-1,-1,-1,-1,-1,-1,-1,-1,-1,-1,-1,-1,-1,-1,
R19_54,264.5,195.5,832.6,790.4,86.5,0,111,5.9,41.54,-1,-1,-1,-1,-1,-1,-1,-1,-1,-1,-1,-1,-1,-1,
R19_56,275,162,830,765,120,0,180,10.4,76.24,-1,-1,-1,-1,-1,-1,-1,-1,-1,-1,-1,-1,-1,-1,
R19_58,310,168,914,651,111,0,143,22,33.69,-1,-1,-1,-1,-1,-1,-1,-1,-1,-1,-1,-1,-1,-1,
R19_60,261,201,864,761,78,0,100,9,32.4,-1,-1,-1,-1,-1,-1,-1,-1,-1,-1,-1,-1,-1,-1,
R19_62,424,168,822,750,132,0,22,8.9,72.1,-1,-1,-1,-1,-1,-1,-1,-1,-1,-1,-1,-1,-1,-1,
R19_64,260,171,936,763,78,0,101,10,49.77,-1,-1,-1,-1,-1,-1,-1,-1,-1,-1,-1,-1,-1,-1,
R19_66,144,178,941,774,106,0,136,7,26.14,-1,-1,-1,-1,-1,-1,-1,-1,-1,-1,-1,-1,-1,-1,
R19_68,157,200,819,704,152,0,214,9,33.05,-1,-1,-1,-1,-1,-1,-1,-1,-1,-1,-1,-1,-1,-1,
R19_70,149,182.9,953.4,780.3,91.7,0,117.6,7.1,23.52,-1,-1,-1,-1,-1,-1,-1,-1,-1,-1,-1,-1,-1,-1,
R19_72,266.2,177.9,909.7,744.5,87.5,0,112.3,10.4,39.42,-1,-1,-1,-1,-1,-1,-1,-1,-1,-1,-1,-1,-1,-1,
R19_74,160.2,203.2,828.7,709.7,146.4,0,188,11.3,35.31,-1,-1,-1,-1,-1,-1,-1,-1,-1,-1,-1,-1,-1,-1,
R19_76,143.8,178.1,941.5,774.3,106.2,0,136.3,7.5,26.15,-1,-1,-1,-1,-1,-1,-1,-1,-1,-1,-1,-1,-1,-1,
R19_78,287.3,187.6,904.4,695.9,93.9,0,120.5,9.2,43.8,-1,-1,-1,-1,-1,-1,-1,-1,-1,-1,-1,-1,-1,-1,
R19_80,140,237,869,656,128,0,164,6,35.23,-1,-1,-1,-1,-1,-1,-1,-1,-1,-1,-1,-1,-1,-1,
R19_82,135,196,965,643,193,0,105,6,21.91,-1,-1,-1,-1,-1,-1,-1,-1,-1,-1,-1,-1,-1,-1,
R19_84,168.9,158.3,1080.8,796.2,124.3,0,42.2,10.8,31.12,-1,-1,-1,-1,-1,-1,-1,-1,-1,-1,-1,-1,-1,-1,
R19_86,173.5,164.8,1006.2,793.5,173.5,0,50.1,6.5,38.2,-1,-1,-1,-1,-1,-1,-1,-1,-1,-1,-1,-1,-1,-1,
R19_88,272.8,209.7,904,679.7,81.8,0,105.1,9,37.17,-1,-1,-1,-1,-1,-1,-1,-1,-1,-1,-1,-1,-1,-1,
R19_90,182,170.2,1059.4,780.7,122,0,45.2,8.2,31.27,-1,-1,-1,-1,-1,-1,-1,-1,-1,-1,-1,-1,-1,-1,
R19_92,250,159,860,800,95,0,180,9.5,67.87,-1,-1,-1,-1,-1,-1,-1,-1,-1,-1,-1,-1,-1,-1,
R19_94,132,178.9,866.9,735.6,160.9,0,206.5,5.5,33.31,-1,-1,-1,-1,-1,-1,-1,-1,-1,-1,-1,-1,-1,-1,
R19_96,153,178,1002,689,113,0,145,8,25.56,-1,-1,-1,-1,-1,-1,-1,-1,-1,-1,-1,-1,-1,-1,
R19_98,279.8,172.4,825.1,804.9,100.4,0,128.9,9.5,52.83,-1,-1,-1,-1,-1,-1,-1,-1,-1,-1,-1,-1,-1,-1,
R19_100,141.9,173.5,882.6,785.3,129.7,0,166.6,10.9,44.61,-1,-1,-1,-1,-1,-1,-1,-1,-1,-1,-1,-1,-1,-1,
R19_102,314,179,869,690,113,0,145,8,46.23,-1,-1,-1,-1,-1,-1,-1,-1,-1,-1,-1,-1,-1,-1,
R19_104,159,175,953,720,116,0,149,15,27.68,-1,-1,-1,-1,-1,-1,-1,-1,-1,-1,-1,-1,-1,-1,
R19_106,355,145,967,871,97,0,19,12.3,55.45,-1,-1,-1,-1,-1,-1,-1,-1,-1,-1,-1,-1,-1,-1,
R19_108,143,190.7,967.4,643.5,142.7,0,169.4,8.4,29.73,-1,-1,-1,-1,-1,-1,-1,-1,-1,-1,-1,-1,-1,-1,
R19_110,277.2,160.7,1061.7,782.5,24.5,0,97.8,11.2,63.14,-1,-1,-1,-1,-1,-1,-1,-1,-1,-1,-1,-1,-1,-1,
R19_112,202,206,942,801,141,0,11,1.7,21.97,-1,-1,-1,-1,-1,-1,-1,-1,-1,-1,-1,-1,-1,-1,
R19_114,164,197,961,641,128,0,163,8,27.23,-1,-1,-1,-1,-1,-1,-1,-1,-1,-1,-1,-1,-1,-1,
R19_116,387,157,938,845,94,0,20,14.3,50.24,-1,-1,-1,-1,-1,-1,-1,-1,-1,-1,-1,-1,-1,-1,
R19_118,359,154,942,801,141,0,19,10.9,62.94,-1,-1,-1,-1,-1,-1,-1,-1,-1,-1,-1,-1,-1,-1,
R19_120,140,200,916,753,103,0,133,7,36.44,-1,-1,-1,-1,-1,-1,-1,-1,-1,-1,-1,-1,-1,-1,
R19_122,276.4,179.6,870.1,768.3,90.3,0,116,8.9,44.28,-1,-1,-1,-1,-1,-1,-1,-1,-1,-1,-1,-1,-1,-1,
R20_15SF,440,181.5,722,970,82.5,27.5,0,3.3,47.26,-1,-1,-1,-1,-1,-1,-1,-1,-1,-1,-1,-1,-1,-1,
R20_35SF,330,181.5,722,970,192.5,27.5,0,1.21,38.34,-1,-1,-1,-1,-1,-1,-1,-1,-1,-1,-1,-1,-1,-1,
R21_20FA,400,191,584,1052,100,0,0,2,38.34,-1,-1,-1,-1,-1,-1,-1,-1,-1,-1,-1,-1,-1,-1,
R21_40FA,300,191,571,1029,200,0,0,1.83,30.26,-1,-1,-1,-1,-1,-1,-1,-1,-1,-1,-1,-1,-1,-1,
R21_10GGBFS,450,191,595,1072,0,0,50,2.25,38.25,-1,-1,-1,-1,-1,-1,-1,-1,-1,-1,-1,-1,-1,-1,
R21_30GGBFS,350,191,592,1066,0,0,150,2,38.505,-1,-1,-1,-1,-1,-1,-1,-1,-1,-1,-1,-1,-1,-1,
R21_50GGBFS,250,191,580,1069,0,0,250,1.9,32.3,-1,-1,-1,-1,-1,-1,-1,-1,-1,-1,-1,-1,-1,-1,
R22_F3,496,235.6,720,780,124,0,0,4,46.22,-1,-1,-1,-1,-1,-1,-1,-1,-1,-1,-1,-1,-1,-1,
R22_F5,372,235.6,720,780,248,0,0,3.77,38.04,-1,-1,-1,-1,-1,-1,-1,-1,-1,-1,-1,-1,-1,-1,
R22_FS1,465,235.6,720,780,155,0,0,2.77,50.13,-1,-1,-1,-1,-1,-1,-1,-1,-1,-1,-1,-1,-1,-1,
R22_FS3,403,235.6,720,780,155,62,0,2.83,63.37,-1,-1,-1,-1,-1,-1,-1,-1,-1,-1,-1,-1,-1,-1,
R23_SCC2,480,220,699,819,96,0,0,10.1,45.05,-1,-1,31,-1,-1,-1,-1,-1,-1,-1,-1,-1,-1,-1,https://doi.org/10.1617/s11527-014-0435-z
R24_W/B=0.3_50FA,300,180,595,958,300,0,0,1.5,56.44,-1,-1,-1,2000,-1,-1,-1,-1,-1,-1,-1,-1,-1,-1,https://doi.org/10.1016/j.matdes.2014.07.042
R24_W/B=0.3_70FA,180,180,595,908,420,0,0,0.72,38.76,-1,-1,-1,1830,-1,-1,-1,-1,-1,-1,-1,-1,-1,-1,
R24_W/B=0.3_10SF,540,180,595,1059,0,60,0,8.58,85.43,-1,-1,-1,380,-1,-1,-1,-1,-1,-1,-1,-1,-1,-1,
R24_W/B=0.3_55FA5SF,240,180,595,933,330,30,0,1.8,53.89,-1,-1,-1,690,-1,-1,-1,-1,-1,-1,-1,-1,-1,-1,
R24_W/B=0.3_40FA10SF,300,180,595,958,240,60,0,3.6,72.42,-1,-1,-1,500,-1,-1,-1,-1,-1,-1,-1,-1,-1,-1,
R24_W/B=0.3_60FA10SF,180,180,595,908,360,60,0,2.28,52.02,-1,-1,-1,515,-1,-1,-1,-1,-1,-1,-1,-1,-1,-1,
R24_W/B=0.35_60FA,206,180,621,1001,309,0,0,0.9766,44.71,-1,-1,-1,2500,-1,-1,-1,-1,-1,-1,-1,-1,-1,-1,
R24_W/B=0.35_5SF,489,180,621,1120,0,26,0,8.224,72.51,-1,-1,-1,1100,-1,-1,-1,-1,-1,-1,-1,-1,-1,-1,
R24_W/B=0.35_45FA5SF,257,180,621,1023,231,26,0,2.056,58.14,-1,-1,-1,1100,-1,-1,-1,-1,-1,-1,-1,-1,-1,-1,
R24_W/B=0.35_65FA5SF,154,180,621,980,334,26,0,1.1308,39.01,-1,-1,-1,2000,-1,-1,-1,-1,-1,-1,-1,-1,-1,-1,
R24_W/B=0.35_50FA10SF,206,180,621,1001,257,51,0,2.57,54.99,-1,-1,-1,750,-1,-1,-1,-1,-1,-1,-1,-1,-1,-1,
R24_W/B=0.4_50FA,225,180,640,1072,225,0,0,1.17,35.62,-1,-1,-1,3560,-1,-1,-1,-1,-1,-1,-1,-1,-1,-1,
R24_W/B=0.4_70FA,135,180,640,1034,315,0,0,0.585,26.95,-1,-1,-1,2830,-1,-1,-1,-1,-1,-1,-1,-1,-1,-1,
R24_W/B=0.4_10SF,405,180,640,1147,0,45,0,9.45,67.15,-1,-1,-1,750,-1,-1,-1,-1,-1,-1,-1,-1,-1,-1,
R24_W/B=0.4_55FA5SF,180,180,640,1053,248,23,0,1.53,33.32,-1,-1,-1,1760,-1,-1,-1,-1,-1,-1,-1,-1,-1,-1,
R24_W/B=0.4_40FA10SF,225,180,640,1072,180,45,0,2.88,51.26,-1,-1,-1,1000,-1,-1,-1,-1,-1,-1,-1,-1,-1,-1,
R24_W/B=0.4_60FA10SF,135,180,640,1034,270,45,0,2.07,28.14,-1,-1,-1,1570,-1,-1,-1,-1,-1,-1,-1,-1,-1,-1,
R25_10% SF,450,175,685,954,0,50,0,9,69.7,-1,-1,-1,-1,-1,-1,-1,-1,-1,-1,-1,-1,-1,-1,
R25_25% SF,375,175,673,938,125,0,0,7.5,51.85,-1,-1,-1,-1,-1,-1,-1,-1,-1,-1,-1,-1,-1,-1,
R25_55% SF,225,175,652,908,275,0,0,7.5,35.7,-1,-1,-1,-1,-1,-1,-1,-1,-1,-1,-1,-1,-1,-1,
R26_SCC2,440,228.6,590,910,110,0,0,11.01,28.18,2.12,-1,-1,-1,649,-1,-1,-1,-1,-1,-1,-1,-1,-1,
R26_SCC4,385,234.4,590,910,165,0,0,9.91,26.06,1.76,-1,-1,-1,634,-1,-1,-1,-1,-1,-1,-1,-1,-1,
R27_M2,440,176,917,714,110,0,0,7.43,59.33,-1,-1,-1,-1,-1,-1,205,360,-1,-1,-1,-1,-1,-1,https://doi.org/10.1016/j.conbuildmat.2010.04.015
R27_M4,220,176,881,686,330,0,0,6.67,40.37,-1,-1,-1,-1,-1,-1,189,320,-1,-1,-1,-1,-1,-1,
R27_M6,330,176,928,722,0,0,220,10,68.08,-1,-1,-1,-1,-1,-1,250,385,-1,-1,-1,-1,-1,-1,
R27_M8,522.5,176,930,724,0,27.5,0,9.56,68.34,-1,-1,-1,-1,-1,-1,248,401,-1,-1,-1,-1,-1,-1,
R27_M10,467.5,176,920,716,0,82.5,0,12,71.74,-1,-1,-1,-1,-1,-1,302,500,-1,-1,-1,-1,-1,-1,
R27_M15,330,176,898,699,165,55,0,9.11,57.12,-1,-1,-1,-1,-1,-1,300,428,-1,-1,-1,-1,-1,-1,
R27_M20,440,176,927,721,0,27.5,82.5,9.78,67.66,-1,-1,-1,-1,-1,-1,275,410,-1,-1,-1,-1,-1,-1,
R27_M22,220,176,912,710,0,82.5,247.5,10.22,71.82,-1,-1,-1,-1,-1,-1,230,375,-1,-1,-1,-1,-1,-1,
R27_M27,330,176,913,711,110,0,110,7.5,52.95,-1,-1,-1,-1,-1,-1,-1,374,-1,-1,-1,-1,-1,-1,
R27_M38,440,176,924,720,41.25,27.5,41.25,8,66.81,-1,-1,-1,-1,-1,-1,275,390,-1,-1,-1,-1,-1,-1,
R27_M45,360,198,855,813,90,0,0,3.2,44.28,-1,-1,-1,-1,-1,-1,199,404,-1,-1,-1,-1,-1,-1,
R27_M47,180,198,829,788,270,0,0,3,25.75,-1,-1,-1,-1,-1,-1,197,350,-1,-1,-1,-1,-1,-1,
R27_M49,270,198,863,821,0,0,180,3.44,49.3,-1,-1,-1,-1,-1,-1,221,356,-1,-1,-1,-1,-1,-1,
R27_M51,427.5,198,865,823,0,22.5,0,4.88,51.95,-1,-1,-1,-1,-1,-1,221,400,-1,-1,-1,-1,-1,-1,
R27_M53,382.5,198,858,816,0,67.5,0,7.76,60.43,-1,-1,-1,-1,-1,-1,225,443,-1,-1,-1,-1,-1,-1,
R27_M55,270,198,841,801,135,45,0,4.52,39.86,-1,-1,-1,-1,-1,-1,178,-1,-1,-1,-1,-1,-1,-1,
R27_M57,360,198,863,820,0,22.5,67,4,51.08,-1,-1,-1,-1,-1,-1,200,-1,-1,-1,-1,-1,-1,-1,
R27_M59,180,198,852,810,0,67.5,202.5,5.76,48.96,-1,-1,-1,-1,-1,-1,198,-1,-1,-1,-1,-1,-1,-1,
R27_M61,270,198,852,811,90,0,90,3.2,45.56,-1,-1,-1,-1,-1,-1,-1,-1,-1,-1,-1,-1,-1,-1,
R27_M63,360,198,859,817,33.75,22.5,33.75,4.2,51.51,-1,-1,-1,-1,-1,-1,156,400,-1,-1,-1,-1,-1,-1,
R27_M65,180,198,840,799,101.25,67.5,101.25,5.04,37.57,-1,-1,-1,-1,-1,-1,-1,398,-1,-1,-1,-1,-1,-1,
R28_40FA,270,198,842,801,180,0,0,2.9,60.3,-1,-1,-1,-1,1083,-1,197,354,-1,-1,-1,-1,-1,-1,
R28_20S,360,198,866,824,0,0,90,3.7,72.6,-1,-1,-1,-1,1053,-1,199,421,-1,-1,-1,-1,-1,-1,
R28_60S,180,198,861,819,0,0,270,2.8,65.7,-1,-1,-1,-1,282,-1,203,380,-1,-1,-1,-1,-1,-1,
R28_10SF,405,198,861,819,0,45,0,5.2,76.1,-1,-1,-1,-1,796,-1,205,420,-1,-1,-1,-1,-1,-1,
R28_15FA5SF,360,198,855,813,67.5,22.5,0,4.2,67.2,-1,-1,-1,-1,1184,-1,173,-1,-1,-1,-1,-1,-1,-1,
R28_45FA15SF,180,198,828,788,202.5,67.5,0,4.8,44.9,-1,-1,-1,-1,652,-1,190,-1,-1,-1,-1,-1,-1,-1,
R28_30S10SF,270,198,857,816,0,45,135,4.6,68.2,-1,-1,-1,-1,408,-1,199,-1,-1,-1,-1,-1,-1,-1,
R28_10FA10S,360,198,861,819,45,0,45,3.2,78,-1,-1,-1,-1,1040,-1,208,-1,-1,-1,-1,-1,-1,-1,
R28_30FA30S,180,198,845,803,135,0,135,2.8,60.6,-1,-1,-1,-1,605,-1,200,-1,-1,-1,-1,-1,-1,-1,
R28_15FA15S10SF,270,198,849,808,67.5,45,67.5,4.2,66.8,-1,-1,-1,-1,463,-1,202,390,-1,-1,-1,-1,-1,-1,
R29_H30,420,165,746,847,180,0,0,13.02,53.5,4.85,-1,41.6,-1,-1,-1,-1,-1,-1,-1,-1,-1,-1,-1,https://doi.org/10.1016/j.conbuildmat.2007.01.002
R29_H50,300,165,723,825,300,0,0,20.4,34.5,3.8,-1,23.5,-1,-1,-1,-1,-1,-1,-1,-1,-1,-1,-1,
R29_HS30,360,165,734,835,180,60,0,22.02,79.5,5.28,-1,39,-1,-1,-1,-1,-1,-1,-1,-1,-1,-1,-1,
R29_HS50,240,165,712,813,300,60,0,19.98,59,4.23,-1,38.9,-1,-1,-1,-1,-1,-1,-1,-1,-1,-1,-1,
R30_Mix-I,340,153.34,1110,680,34,0,0,2.04,51.7,-1,-1,36.372,-1,-1,-1,-1,-1,-1,-1,-1,-1,-1,-1,https://doi.org/10.1061/JCCEE5.CPENG-6029
R30_Mix-IV,420,168,1082,663,0,21,0,4.2,61.18,-1,-1,31.759,-1,-1,-1,-1,-1,-1,-1,-1,-1,-1,-1,
R30_Mix-VI,440,135.52,1107,678,0,44,0,3.52,68.73,-1,-1,42.181,-1,-1,-1,-1,-1,-1,-1,-1,-1,-1,-1,
R30_Mix-VIII,445,144.62,944,578,0,44.5,89,7.12,74.37,-1,-1,43.11,-1,-1,-1,-1,-1,-1,-1,-1,-1,-1,-1,
R31_IFA-10,324,180,945,791,36,0,0,0,32.6,-1,-1,-1,-1,-1,-1,188,210,600,660,298,650,765,-1,https://doi.org/10.1016/j.conbuildmat.2021.125776
R31_IFA-30,252,180,945,764,108,0,0,0,30,-1,-1,-1,-1,-1,-1,120,285,710,750,310,600,660,-1,
R31_IBS-20,288,180,945,799,0,0,72,0,40,-1,-1,-1,-1,-1,-1,200,280,700,750,-1,-1,-1,-1,
R32_50S-60,175,210,952,883,0,0,175,0,43.605,-1,-1,-1,703,372,-1,-1,-1,-1,-1,-1,-1,-1,-1,https://doi.org/10.1061/(ASCE)0899-1561(2009)21:9(494)
R32_25FS-60,176,211,951,881,88,0,88,0,36.465,-1,-1,-1,660,376,-1,-1,-1,-1,-1,-1,-1,-1,-1,
R32_50F-38,221,167,921,855,221,0,0,3.4,61.88,-1,-1,-1,531,144,-1,-1,-1,-1,-1,-1,-1,-1,-1,
R33_M1,231,119,1047,852,156,0,0,3.2,55.3,-1,-1,-1,-1,-1,-1,-1,-1,-1,-1,-1,-1,-1,1.18,https://doi.org/10.1061/(ASCE)0899-1561(2002)14:5(417)
R33_M3,156,121,1026,834,241,0,0,2.3,43.7,-1,-1,-1,-1,-1,-1,-1,-1,-1,-1,-1,-1,-1,2.03,
R33_M5,193,114,1032,836,197,0,0,2.6,36.8,-1,-1,-1,-1,-1,-1,-1,-1,-1,-1,-1,-1,-1,2.81,
R33_M7,229,113,1032,844,254,0,0,2.1,46.3,-1,-1,-1,-1,-1,-1,-1,-1,-1,-1,-1,-1,-1,1.68,
R33_M9,154,117,1016,818,261,0,0,1.9,40,-1,-1,-1,-1,-1,-1,-1,-1,-1,-1,-1,-1,-1,3.45,
R34_M4,120,116,1200,600,280,0,0,0,25.97,2.51,4.6,-1,-1,-1,-1,100,163,225,-1,-1,-1,-1,-1,
R34_M6,200,120,1200,600,200,0,0,0,56.57,4.2,6.11,-1,-1,-1,-1,113,169,256,-1,-1,-1,-1,-1,
R35_M2,120,116,1200,600,280,0,0,0,28.98,2.82,4.92,-1,-1,-1,-1,-1,-1,-1,-1,-1,-1,-1,-1,
R35_M4,200,120,1200,600,200,0,0,0,59.75,4.59,6.59,-1,-1,-1,-1,-1,-1,-1,-1,-1,-1,-1,-1,
R35_M6,120,160,1200,600,280,0,0,0,19.5,2.04,3.43,-1,-1,-1,-1,-1,-1,-1,-1,-1,-1,-1,-1,
R35_M8,200,156,1200,600,200,0,0,0,41.26,3.69,5.01,-1,-1,-1,-1,-1,-1,-1,-1,-1,-1,-1,-1,
R36_w-c0.4_F30,280,160,1270,554,120,0,0,0,29.75,-1,4.26,-1,-1,-1,-1,-1,718,-1,-1,-1,-1,-1,-1,
R36_w-c0.4_F50,200,160,1270,533,200,0,0,0,24.65,-1,3.82,-1,-1,-1,-1,-1,597,-1,-1,-1,-1,-1,-1,
R36_w-c0.34_F20,320,136,1270,628,80,0,0,2,44.54,-1,5.17,-1,-1,-1,-1,-1,597,-1,-1,-1,-1,-1,-1,
R36_w-c0.34_F40,240,136,1270,607,160,0,0,2,38.25,-1,4.78,-1,-1,-1,-1,-1,505,-1,-1,-1,-1,-1,-1,
R36_w-c0.34_F60,160,136,1270,586,240,0,0,2,28.05,-1,4.19,-1,-1,-1,-1,-1,340,-1,-1,-1,-1,-1,-1,
R36_w-c0.3_F30,280,120,1270,660,120,0,0,2,55.25,-1,5.62,-1,-1,-1,-1,-1,408,-1,-1,-1,-1,-1,-1,
R36_w-c0.3_F50,200,120,1270,639,200,0,0,2,44.2,-1,5.28,-1,-1,-1,-1,-1,295,-1,-1,-1,-1,-1,-1,
R37_G2,423,143.82,1056,704,47,0,0,0,46.32,-1,-1,-1,-1,-1,-1,240,350,449,467,-1,-1,-1,-1,https://doi.org/10.1016/j.conbuildmat.2021.125045
R37_G4,329,111.86,1056,704,141,0,0,0,45.31,-1,-1,-1,-1,-1,-1,200,290,371,389,-1,-1,-1,-1,
R37_G10,414,140.76,1056,704,0,0,56,0,48.45,-1,-1,-1,-1,-1,-1,237,340,440,460,-1,-1,-1,-1,
R37_G12,282,95.88,1056,704,132,0,56,0,46.15,-1,-1,-1,-1,-1,-1,178,258,327,340,-1,-1,-1,-1,
R38_1,439,140,1027,847,0,7.66,0,9.66,60.2,-1,-1,-1,-1,-1,-1,-1,-1,-1,-1,-1,-1,-1,-1,https://doi.org/10.1080/24705314.2020.1765269
R38_3,369,140,1060,874,0,7.34,0,8.12,57.49,-1,-1,-1,-1,-1,-1,-1,-1,-1,-1,-1,-1,-1,-1,
R38_5,429,140,1024,844,0,7.04,0,9.44,61.63,-1,-1,-1,-1,-1,-1,-1,-1,-1,-1,-1,-1,-1,-1,
R38_7,362,140,1058,872,0,7.18,0,7.96,58.4,-1,-1,-1,-1,-1,-1,-1,-1,-1,-1,-1,-1,-1,-1,
R38_9,420,140,1021,842,0,6.56,0,9.24,62.03,-1,-1,-1,-1,-1,-1,-1,-1,-1,-1,-1,-1,-1,-1,
R38_11,355,140,1055,870,0,7.34,0,7.81,58.77,-1,-1,-1,-1,-1,-1,-1,-1,-1,-1,-1,-1,-1,-1,
R38_13,411,140,1018,839,0,6.4,0,9.04,62.34,-1,-1,-1,-1,-1,-1,-1,-1,-1,-1,-1,-1,-1,-1,
R38_15,347,140,1053,868,0,5.46,0,7.63,59,-1,-1,-1,-1,-1,-1,-1,-1,-1,-1,-1,-1,-1,-1,
R38_17,403,140,1015,837,0,6.56,0,8.87,62.43,-1,-1,-1,-1,-1,-1,-1,-1,-1,-1,-1,-1,-1,-1,
R38_19,340,140,1050,866,0,5.3,0,7.48,59.08,-1,-1,-1,-1,-1,-1,-1,-1,-1,-1,-1,-1,-1,-1,
R38_21,394,140,1012,834,0,7.02,0,8.67,62.54,-1,-1,-1,-1,-1,-1,-1,-1,-1,-1,-1,-1,-1,-1,
R38_23,333,140,148,864,0,5.46,0,7.33,59.14,-1,-1,-1,-1,-1,-1,-1,-1,-1,-1,-1,-1,-1,-1,
R39_TBSCC1,437,204,785,908,51,0,0,10.736,34.85,3.73,5.3,26.9,740,-1,-1,-1,-1,-1,-1,-1,-1,-1,-1,https://doi.org/10.1016/j.conbuildmat.2021.123845
R39_TBSCC3,411,204,785,908,51,0,0,10.164,35.96,3.97,6,28.13,747,-1,-1,-1,-1,-1,-1,-1,-1,-1,-1,
R39_TBSCC5,398,204,785,908,77,0,0,10.45,35.7,4,6,28,678,-1,-1,-1,-1,-1,-1,-1,-1,-1,-1,
R39_TBSCC7,386,204,785,908,103,0,0,10.758,36.04,4.12,6.8,29.5,598,-1,-1,-1,-1,-1,-1,-1,-1,-1,-1,
R39_TBSCC9,360,204,785,908,103,0,0,10.186,38.08,4.58,7.1,31.1,530,-1,-1,-1,-1,-1,-1,-1,-1,-1,-1,
R39_TBSCC11,347,204,785,908,129,0,0,10.472,34.09,3.82,5.2,27,450,-1,-1,-1,-1,-1,-1,-1,-1,-1,-1,
R39_TBSCC13,334,204,785,908,154,0,0,10.736,29.75,3.25,4.7,26,397,-1,-1,-1,-1,-1,-1,-1,-1,-1,-1,
R39_TBSCC15,308,204,785,908,154,0,0,10.164,25.59,2.49,4.2,25.8,402,-1,-1,-1,-1,-1,-1,-1,-1,-1,-1,
R40_250CFGN0,250,125,1093,728.7,125,0,125,11,51.17,5.18,7.84,33.96,1435,-1,-1,-1,-1,-1,-1,-1,-1,-1,-1,
R40_125CFN0,125,125,1060.8,707.2,375,0,0,11,43.77,4.43,6.68,31.43,1445,-1,-1,-1,-1,-1,-1,-1,-1,-1,-1,
R40_125CFGSN0,125,125,1068,712,150,75,150,11,51.51,5.1,7.76,34.03,1419,-1,-1,-1,-1,-1,-1,-1,-1,-1,-1,
R41_SCC-25,635,247,565,847,0,71,0,2.54,62.22,-1,10,-1,-1,-1,-1,400,480,526,-1,-1,-1,-1,-1,
R41_SCC-75,635,247,565,847,0,71,0,2.54,56.1,-1,9.4,-1,-1,-1,-1,450,579,613,-1,-1,-1,-1,-1,
R42_w/c ratio =0.3_2,484.5,153,1122.5,653,25.5,0,0,14.535,47.17,-1,7.46,-1,-1,-1,-1,-1,-1,-1,-1,-1,-1,-1,-1,https://doi.org/10.1016/j.scs.2011.06.001
R42_w/c ratio =0.3_4,433.5,153,1122.5,653,76.5,0,0,13.005,46.75,-1,6.75,-1,-1,-1,-1,-1,-1,-1,-1,-1,-1,-1,-1,
R42_w/c ratio =0.3_6,382.5,153,1122.5,653,127.5,0,0,11.475,43.61,-1,6.6,-1,-1,-1,-1,-1,-1,-1,-1,-1,-1,-1,-1,
R42_w/c ratio =0.34_3,450,170,1100,640,50,0,0,13.5,42.16,-1,6.65,-1,-1,-1,-1,-1,-1,-1,-1,-1,-1,-1,-1,
R42_w/c ratio =0.34_5,400,170,1100,640,100,0,0,12,38.33,-1,6.22,-1,-1,-1,-1,-1,-1,-1,-1,-1,-1,-1,-1,
R42_w/c ratio =0.38_2,465.5,186.2,1078,628,24.5,0,0,13.965,36.12,-1,6.16,-1,-1,-1,-1,-1,-1,-1,-1,-1,-1,-1,-1,
R42_w/c ratio =0.38_4,416.5,186.2,1078,628,73.5,0,0,12.495,32.13,-1,5.75,-1,-1,-1,-1,-1,-1,-1,-1,-1,-1,-1,-1,
R42_w/c ratio =0.38_6,367.5,186.2,1078,628,122.5,0,0,11.025,29.72,-1,5.2,-1,-1,-1,-1,-1,-1,-1,-1,-1,-1,-1,-1,
R42_w/c ratio =0.42_2,456,201.6,1058,616,24,0,0,13.68,32.89,-1,4.73,-1,-1,-1,-1,-1,-1,-1,-1,-1,-1,-1,-1,
R42_w/c ratio =0.42_4,408,201.6,1058,616,72,0,0,12.24,29.75,-1,4.73,-1,-1,-1,-1,-1,-1,-1,-1,-1,-1,-1,-1,
R42_w/c ratio =0.42_6,360,201.6,1058,616,120,0,0,10.8,26.56,-1,4.4,-1,-1,-1,-1,-1,-1,-1,-1,-1,-1,-1,-1,
R43_FA20,368,161,1085.2,693.81,92,0,0,1.104,57.37,4.7,-1,29.1,-1,-1,-1,180,340,-1,-1,-1,-1,-1,-1,https://doi.org/10.1016/j.jclepro.2015.02.050
R43_FA40,276,161,1085.2,693.81,184,0,0,1.104,47.6,4.48,-1,27,-1,-1,-1,130,290,-1,-1,-1,-1,-1,-1,
R43_GGBFS30,322,161,1085.2,693.81,0,0,138,1.104,52.95,4.58,-1,28.25,-1,-1,-1,175,325,-1,-1,-1,-1,-1,-1,
R44_NASCC,300,191,875,761,169,0,0,4,30.77,3.5,5.29,-1,-1,-1,-1,-1,-1,-1,-1,-1,-1,-1,-1,https://doi.org/10.1007/s40030-014-0051-5
R44_NASCC-50,300,191,850,761,169,0,0,4.2,29.49,2.33,3.02,-1,-1,-1,-1,-1,-1,-1,-1,-1,-1,-1,-1,
R44_NASCC-100,300,194,825,761,158,0,0,4.3,25.75,1.45,2.89,-1,-1,-1,-1,-1,-1,-1,-1,-1,-1,-1,-1,
R45_M12,240,180,1107,665,0,0,160,0,28.47,-1,-1,-1,-1,-1,-1,80,127,195,220,290,370,328,-1,
R45_M21,280,175,1132,680,0,0,70,0,26.75,-1,-1,-1,-1,-1,-1,69,123,200,220,348,470,390,-1,
R45_M23,140,175,1132,680,0,0,210,0,21.86,-1,-1,-1,-1,-1,-1,93,158,250,275,500,680,600,-1,
R45_M32,192,176,1145,688,0,0,128,0,18.69,-1,-1,-1,-1,-1,-1,95,154,245,223,490,650,600,-1,
R46_B,420,156,1134,610,0,0,180,6.72,85.34,5.91,-1,-1,-1,-1,-1,-1,50,60,71,398,540,580,-1,https://doi.org/10.1016/S0008-8846(01)00539-7
R47_GGBFS25,262.5,175,1025,832,0,0,87.5,3.5,35.36,2.71,-1,-1,1099,-1,732,-1,-1,-1,-1,-1,-1,-1,-1,https://doi.org/10.1016/j.compositesb.2012.05.054
R48_10S1.3A,450,210,708.2,901.5,0,50,0,1.3,62.46,-1,7.15,-1,-1,-1,-1,-1,-1,-1,-1,-1,-1,-1,-1, https://doi.org/10.1007/s12205-016-0258-2
R48_10S1.5A,450,210,707.4,900.2,0,50,0,1.5,58.66,-1,7.1,-1,-1,-1,-1,-1,-1,-1,-1,-1,-1,-1,-1,
R48_20S1.5A,450,210,706.3,898.6,0,50,0,1.7,60.57,-1,7.07,-1,-1,-1,-1,-1,-1,-1,-1,-1,-1,-1,-1,
R49_M2,467.5,192.5,839.3,801.3,0,0,82.5,7.43,51.17,-1,-1,-1,-1,-1,-1,-1,-1,-1,-1,-1,-1,-1,-1,https://doi.org/10.1617/s11527-011-9706-0
R49_M4,302.5,192.5,830.3,792.8,0,0,247.5,7.43,52.61,-1,-1,-1,-1,-1,-1,-1,-1,-1,-1,-1,-1,-1,-1,
R50_F40,333,173,924,743,162,0,0,3.71,49.72,4.2,-1,44,-1,-1,-1,-1,-1,-1,-1,-1,-1,-1,-1,
R50_F80,115,167,924,743,336,0,0,2.93,13.6,1.8,-1,31,-1,-1,-1,-1,-1,-1,-1,-1,-1,-1,-1,
R51_30%FA,350,190,735,910,150,0,0,6.75,39.1,-1,-1,-1,-1,-1,-1,-1,-1,-1,-1,-1,-1,-1,-1,
R51_40%FA,300,190,735,910,200,0,0,6.75,38.25,-1,-1,-1,-1,-1,-1,-1,-1,-1,-1,-1,-1,-1,-1,
R51_10%SF,405,171,735,990,0,45,0,8,52.7,-1,-1,-1,-1,-1,-1,-1,-1,-1,-1,-1,-1,-1,-1,
R51_20%SF,360,180,735,990,0,90,0,8,56.1,-1,-1,-1,-1,-1,-1,-1,-1,-1,-1,-1,-1,-1,-1,
R52_23,297.5,104.125,1035,740,0,52.5,0,6.3,53.77,-1,-1,-1,-1,-1,-1,-1,-1,-1,-1,-1,-1,-1,-1,
R52_25,245,85.75,1035,740,105,0,0,6.3,31.67,-1,-1,-1,-1,-1,-1,-1,-1,-1,-1,-1,-1,-1,-1,
R52_27,245,85.75,1035,740,0,0,105,6.3,41.5,-1,-1,-1,-1,-1,-1,-1,-1,-1,-1,-1,-1,-1,-1,
R52_29,297.5,104.125,1035,740,0,26.25,26.25,6.3,55.02,-1,-1,-1,-1,-1,-1,-1,-1,-1,-1,-1,-1,-1,-1,
R53_SF7.5,449,145,1140.68,673,0,36,0,6.0615,99.705,-1,-1,-1,-1,-1,-1,-1,-1,-1,-1,-1,-1,-1,-1,https://doi.org/10.1016/j.conbuildmat.2009.08.045
R53_BS50,243,145,1165.52,676,0,0,243,4.2525,83.81,-1,-1,-1,-1,-1,-1,-1,-1,-1,-1,-1,-1,-1,-1,
R53_SF+BS50,206,145,1113.56,657,0,36,243,5.15,89.93,-1,-1,-1,-1,-1,-1,-1,-1,-1,-1,-1,-1,-1,-1,
R53_FA40,291,145,1153.57,646,194,0,0,5.0925,49.3,-1,-1,-1,-1,-1,-1,-1,-1,-1,-1,-1,-1,-1,-1,
R53_SF+FA40,255,145,1150.91,633,194,36,0,5.7375,64.6,-1,-1,-1,-1,-1,-1,-1,-1,-1,-1,-1,-1,-1,-1,
R54_LS-2,350,153,966,706,100,0,0,9.5,48.96,-1,-1,37,-1,-1,-1,-1,-1,-1,-1,-1,-1,-1,-1,
R54_LS-4,350,180,927,678,100,0,0,6.8,48.87,-1,-1,28.5,-1,-1,-1,-1,-1,-1,-1,-1,-1,-1,-1,
R54_MW-2,350,153,1087,706,100,0,0,9.5,45.9,-1,-1,45,-1,-1,-1,-1,-1,-1,-1,-1,-1,-1,-1,
R54_MW-4,350,180,1043,678,100,0,0,6.8,44.2,-1,-1,15.7,-1,-1,-1,-1,-1,-1,-1,-1,-1,-1,-1,
R54_RA-2,350,153,982,706,100,0,0,9.5,42.5,-1,-1,30,-1,-1,-1,-1,-1,-1,-1,-1,-1,-1,-1,
R54_RA-4,350,180,943,678,100,0,0,6.8,32.72,-1,-1,15,-1,-1,-1,-1,-1,-1,-1,-1,-1,-1,-1,
R55_RCA-HCL,440,209,708.7,748,110,0,0,9.35,47.26,3,-1,-1,-1,-1,-1,-1,-1,-1,-1,-1,-1,-1,-1,
R55_RCA-TSM,440,209,705,748,110,0,0,9.35,51,3.22,-1,-1,-1,-1,-1,-1,-1,-1,-1,-1,-1,-1,-1,
R56_CFA0,200,90,1014,740,200,0,0,0.5,36.55,-1,-1,-1,1154,-1,-1,-1,-1,-1,-1,-1,-1,-1,-1,https://doi.org/10.1016/j.conbuildmat.2011.11.013
R56_CSL0,200,90,1014,774,0,0,200,1.4,57.8,-1,-1,-1,1049,-1,-1,-1,-1,-1,-1,-1,-1,-1,-1,
R57_SP-2,269.45,190,1396,698,31.7,15.85,0,0,17.76,-1,3.07,-1,-1,-1,-1,-1,-1,-1,-1,-1,-1,-1,-1,https://doi.org/10.32732/jcec.2023.12.2.78
R57_SP-4,237.75,190,1396,698,63.4,15.85,0,0,15.01,-1,-1,-1,-1,-1,-1,-1,-1,-1,-1,-1,-1,-1,-1,
R57_SP-6,237.75,190,1396,698,31.7,47.55,0,0,16.97,-1,-1,-1,-1,-1,-1,-1,-1,-1,-1,-1,-1,-1,-1,
R57_SP-8,253.6,190,1396,698,31.7,31.7,0,0,16.19,-1,-1,-1,-1,-1,-1,-1,-1,-1,-1,-1,-1,-1,-1,
R57_SP-10,237.75,190,1396,698,63.4,15.85,0,0,16.38,-1,-1,-1,-1,-1,-1,-1,-1,-1,-1,-1,-1,-1,-1,
R57_SP-12,237.75,190,1396,698,31.7,47.55,0,0,17.95,-1,2.18,-1,-1,-1,-1,-1,-1,-1,-1,-1,-1,-1,-1,
R58-A2,421.6,158,1029,686,105.4,0,0,10.54,60.18,-1,-1,-1,-1,-1,-1,-1,-1,-1,-1,-1,-1,-1,-1,
R58-B4,495.38,158,1029,686,0,31.62,0,10.54,75.22,-1,-1,-1,-1,-1,-1,-1,-1,-1,-1,-1,-1,-1,-1,
R58-B6,474.3,158,1029,686,0,52.7,0,10.54,76.67,-1,-1,-1,-1,-1,-1,-1,-1,-1,-1,-1,-1,-1,-1,
R58-C8,421.6,158,1029,686,52.7,52.7,0,10.54,64.09,-1,-1,-1,-1,-1,-1,-1,-1,-1,-1,-1,-1,-1,-1,
R58-C10,337.28,158,1029,686,158.1,31.62,0,10.54,52.27,-1,-1,-1,-1,-1,-1,-1,-1,-1,-1,-1,-1,-1,-1,
R59_G30,280,160,1104,736,0,0,120,2,19.975,2,5.2,-1,-1,-1,-1,-1,-1,-1,-1,-1,-1,-1,-1,https://doi.org/10.1016/j.cscm.2024.e03190
R59_G50,200,160,1104,736,0,0,200,2,21.505,1.6,4.25,-1,-1,-1,-1,-1,-1,-1,-1,-1,-1,-1,-1,
R60_80BFS,80,163,1184,684,0,0,320,2.85,34.8,-1,-1,-1,-1,-1,-1,-1,405,540,558,-1,-1,-1,-1,https://doi-org.wwwproxy1.library.unsw.edu.au/10.1002/suco.202000251
R60_70BFS-FA,120,163,1184,684,84,0,196,1.15,42.5,-1,-1,-1,-1,-1,-1,-1,390,445,490,-1,-1,-1,-1,
R61_MIX1,304.56,160,1270,605,84.6,33.84,126.9,3.6,44.914,4.24,5.1,-1,-1,-1,-1,-1,-1,-1,-1,-1,-1,-1,-1,https://iopscience.iop.org/article/10.1088/1757-899X/1185/1/012016
R61_MIX2,304.56,160,1270,605,84.6,33.84,169.2,3.6,49.946,4.27,5.3,-1,-1,-1,-1,-1,-1,-1,-1,-1,-1,-1,-1,
R61_MIX3,304.56,160,1270,605,84.6,33.84,211.5,3.6,45.5345,3.64,5.1,-1,-1,-1,-1,-1,-1,-1,-1,-1,-1,-1,-1,
R61_MIX4,262.26,160,1270,605,126.9,33.84,126.9,3.6,40.5875,3.66,4.8,-1,-1,-1,-1,-1,-1,-1,-1,-1,-1,-1,-1,
R61_MIX5,262.26,160,1270,605,126.9,33.84,169.2,3.6,43.894,3.95,5,-1,-1,-1,-1,-1,-1,-1,-1,-1,-1,-1,-1,
R61_MIX6,262.26,160,1270,605,126.9,33.84,211.5,3.6,42.262,3.66,4.9,-1,-1,-1,-1,-1,-1,-1,-1,-1,-1,-1,-1,
R61_MIX7,219.96,160,1270,605,169.2,33.84,126.9,3.6,39.7885,3,4.8,-1,-1,-1,-1,-1,-1,-1,-1,-1,-1,-1,-1,
R61_MIX8,219.96,160,1270,605,169.2,33.84,169.2,3.6,40.596,3.19,4.8,-1,-1,-1,-1,-1,-1,-1,-1,-1,-1,-1,-1,
R61_MIX9,219.96,160,1270,605,169.2,33.84,211.5,3.6,37.4255,2.81,4.6,-1,-1,-1,-1,-1,-1,-1,-1,-1,-1,-1,-1,
R62_M-1,450,184.5,1201.5,306,0,0,306,3.78,34,3,4.85,-1,-1,-1,-1,-1,-1,-1,-1,-1,-1,-1,-1,https://www.ripublication.com/ijaer18/ijaerv13n8_18.pdf
R62_M-2,360,184.5,1201.5,612,90,0,0,2.25,32.72,2.5,4.27,-1,-1,-1,-1,-1,-1,-1,-1,-1,-1,-1,-1,
R62_M-3,315,184.5,1201.5,612,135,0,0,2.25,25.5,2.38,4,-1,-1,-1,-1,-1,-1,-1,-1,-1,-1,-1,-1,
R62_M-4,270,184.5,1201.5,612,180,0,0,2.25,23.21,2.3,3.95,-1,-1,-1,-1,-1,-1,-1,-1,-1,-1,-1,-1,
R62_M-5,360,184.5,1201.5,306,90,0,306,7.56,27.71,2.52,4.48,-1,-1,-1,-1,-1,-1,-1,-1,-1,-1,-1,-1,
R62_M-6,315,184.5,1201.5,306,135,0,306,7.56,30.01,2.61,4.5,-1,-1,-1,-1,-1,-1,-1,-1,-1,-1,-1,-1,
R62_M-7,270,184.5,1201.5,306,180,0,306,7.56,31.02,2.65,4.62,-1,-1,-1,-1,-1,-1,-1,-1,-1,-1,-1,-1,
R63_SF2.5,409.5,155.61,874,874,0,10.5,0,2.016,61.61,-1,-1,-1,3200,2400,1990,-1,-1,-1,-1,-1,-1,-1,-1,https://doi.org/10.1016/j.cemconcomp.2012.01.007
R63_SF5,399,151.62,872,872,0,21,0,2.016,65.45,-1,-1,-1,2100,1000,800,-1,-1,-1,-1,-1,-1,-1,-1,
R63_SF7.5,388.5,147.63,870,870,0,31.5,0,2.016,67.15,-1,-1,-1,1500,750,650,-1,-1,-1,-1,-1,-1,-1,-1,
R63_SF10,378,143.64,869,869,0,42,0,2.016,68,-1,-1,-1,1100,740,400,-1,-1,-1,-1,-1,-1,-1,-1,
R63_SL15,357,135.66,873,873,0,0,63,2.016,52.7,-1,-1,-1,6100,3990,2800,-1,-1,-1,-1,-1,-1,-1,-1,
R63_SL30,294,111.72,870,870,0,0,126,2.016,46.75,-1,-1,-1,5950,2600,1800,-1,-1,-1,-1,-1,-1,-1,-1,
R63_SL50,210,79.8,866,866,0,0,210,2.016,34,-1,-1,-1,5100,2000,1200,-1,-1,-1,-1,-1,-1,-1,-1,
R63_SL15-SF2.5,346.5,131.67,872,872,0,10.5,63,2.016,53.55,-1,-1,-1,4550,1500,1400,-1,-1,-1,-1,-1,-1,-1,-1,
R63_SL15-SF5,336,127.68,870,870,0,21,63,2.016,55.25,-1,-1,-1,5000,1490,1000,-1,-1,-1,-1,-1,-1,-1,-1,
R63_SL15-SF7.5,325.5,123.69,868,868,0,31.5,63,2.016,57.8,-1,-1,-1,2285,800,800,-1,-1,-1,-1,-1,-1,-1,-1,
R63_SL30-SF2.5,283.5,107.73,869,869,0,10.5,126,2.016,47.6,-1,-1,-1,3950,1410,1020,-1,-1,-1,-1,-1,-1,-1,-1,
R63_SL30-SF5,273,103.74,867,867,0,21,126,2.016,44.2,-1,-1,-1,3500,1000,850,-1,-1,-1,-1,-1,-1,-1,-1,
R63_SL30-SF7.5,262.5,99.75,865,865,0,31.5,126,2.016,48.11,-1,-1,-1,2100,900,580,-1,-1,-1,-1,-1,-1,-1,-1,
R63_SL50-SF2.5,199.5,75.81,865,865,0,10.5,210,2.016,31.53,-1,-1,-1,3290,995,560,-1,-1,-1,-1,-1,-1,-1,-1,
R63_SL50-SF5,189,71.82,863,863,0,21,210,2.016,34,-1,-1,-1,2080,990,550,-1,-1,-1,-1,-1,-1,-1,-1,
R63_SL50-SF7.5,178.5,67.83,861,861,0,31.5,210,2.016,33.66,-1,-1,-1,1990,988,300,-1,-1,-1,-1,-1,-1,-1,-1,
R64_D0-45,160,130,115,770,127,0,0,2.296,31.7,3,-1,-1,5350,4500,-1,-1,-1,-1,-1,-1,-1,-1,-1,https://doi.org/10.1016/j.jmrt.2020.04.038
R64_D10-45,144,129,115,770,127,0,16,2.296,33.5,3.2,-1,-1,5070,4250,-1,-1,-1,-1,-1,-1,-1,-1,-1,
R64_D20-45,127,127,1115,770,127,0,32,2.288,35.8,3.5,-1,-1,4850,3800,-1,-1,-1,-1,-1,-1,-1,-1,-1,
R64_D30-45,111,128,1115,770,127,0,47,2.28,37,3.52,-1,-1,4030,3180,-1,-1,-1,-1,-1,-1,-1,-1,-1,
R64_D40-45,94,128,1115,770,127,0,63,2.272,39.8,3.7,-1,-1,3930,2998,-1,-1,-1,-1,-1,-1,-1,-1,-1,
R64_D50-45,78,128,1115,770,127,0,78,2.264,39.2,3.91,-1,-1,3430,2800,-1,-1,-1,-1,-1,-1,-1,-1,-1,
R64_D30-30,158,105,1115,770,127,0,68,2.824,41.4,3.82,-1,-1,2200,1800,-1,-1,-1,-1,-1,-1,-1,-1,-1,
R64_D30-35,140,114,1115,770,127,0,60,2.616,38,3.74,-1,-1,3500,2200,-1,-1,-1,-1,-1,-1,-1,-1,-1,
R64_D30-40,124,122,1115,770,127,0,53,2.432,37.4,3.68,-1,-1,3980,2830,-1,-1,-1,-1,-1,-1,-1,-1,-1,
R64_D30-45,111,128,1115,770,127,0,47,2.28,37,3.52,-1,-1,4060,3260,-1,-1,-1,-1,-1,-1,-1,-1,-1,
R64_D30-50,99,133,1115,770,127,0,42,2.144,33,3.28,-1,-1,4260,3250,-1,-1,-1,-1,-1,-1,-1,-1,-1,
R65_C80F20,320,152,1097,731.2,80,0,0,0,36.55,5.35,8.35,-1,-1,-1,-1,-1,-1,-1,-1,-1,-1,-1,-1,https://doi.org/10.3390/ma15093016
R65_C70F30,280,152,1097,731.2,120,0,0,0,45.9,4.93,8.35,50.67,-1,-1,-1,-1,-1,-1,-1,-1,-1,-1,-1,
R65_C60F40,240,152,1097,731.2,160,0,0,0,46.1,4.02,6,-1,-1,-1,-1,-1,-1,-1,-1,-1,-1,-1,-1,
R65_C80S20,320,152,1097,731.2,0,0,80,0,51.85,4.41,9,45.62,-1,-1,-1,-1,-1,-1,-1,-1,-1,-1,-1,
R65_C70S30,280,152,1097,731.2,0,0,120,0,55.25,4.19,9.5,-1,-1,-1,-1,-1,-1,-1,-1,-1,-1,-1,-1,
R65_C60S40,240,152,1097,731.2,0,0,160,0,51.85,4,8.1,51.12,-1,-1,-1,-1,-1,-1,-1,-1,-1,-1,-1,
R65_C65F20S15,260,152,1097,731.2,80,0,60,0,42.5,4.15,8,45.77,-1,-1,-1,-1,-1,-1,-1,-1,-1,-1,-1,
R65_C60F20S20,240,152,1097,731.2,80,0,80,0,42.5,3.47,6.9,51.09,-1,-1,-1,-1,-1,-1,-1,-1,-1,-1,-1,
R66_BFC-20,260.8,179,1109,675,65.2,0,0,0,27.62,-1,-1,-1,-1,-1,-1,-1,-1,-1,-1,-1,-1,-1,-1,https://doi.org/10.1007/978-981-15-5101-7_1
R66_TFS-4,247.76,179,1109,675,65.2,13.04,0,0,30.71,-1,-1,-1,-1,-1,-1,-1,-1,-1,-1,-1,-1,-1,-1,
R66_TFS-8,234.72,179,1109,675,65.2,26.08,0,0,28.9,-1,-1,-1,-1,-1,-1,-1,-1,-1,-1,-1,-1,-1,-1,
R66_TFS-12,221.68,179,1109,675,65.2,39.12,0,0,25.5,-1,-1,-1,-1,-1,-1,-1,-1,-1,-1,-1,-1,-1,-1,
[...]
R110_OSP,598,350.1,934,915,0,0,180,0,36,3.25,4.5,-1,-1,-1,-1,-1,-1,-1,-1,-1,-1,-1,-1,https://doi.org/10.1155/2022/1047648
R111_20FA,440,176,917,714,110,0,0,7.43,59.33,-1,-1,-1,-1,-1,-1,-1,-1,-1,-1,-1,-1,-1,-1,https://doi.org/10.1617/s11527-007-9242-0
R111_40FA,330,176,899,700,220,0,0,7.43,51.765,-1,-1,-1,-1,-1,-1,-1,-1,-1,-1,-1,-1,-1,-1,
R111_60FA,220,176,881,686,330,0,0,6.67,40.375,-1,-1,-1,-1,-1,-1,-1,-1,-1,-1,-1,-1,-1,-1,
R111_20GGBFS,440,176,931,725,0,0,110,10.43,63.835,-1,-1,-1,-1,-1,-1,-1,-1,-1,-1,-1,-1,-1,-1,
R111_40GGBFS,330,176,928,722,0,0,220,10,68.085,-1,-1,-1,-1,-1,-1,-1,-1,-1,-1,-1,-1,-1,-1,
R111_60GGBFS,220,176,924,720,0,0,330,8.89,66.385,-1,-1,-1,-1,-1,-1,-1,-1,-1,-1,-1,-1,-1,-1,
R111_5SF,522.5,176,930,724,0,27.5,0,9.56,68.255,-1,-1,-1,-1,-1,-1,-1,-1,-1,-1,-1,-1,-1,-1,
R111_10SF,495,176,925,720,0,55,0,10.67,72.76,-1,-1,-1,-1,-1,-1,-1,-1,-1,-1,-1,-1,-1,-1,
R111_15SF,467.5,176,920,716,0,82.5,0,12,71.74,-1,-1,-1,-1,-1,-1,-1,-1,-1,-1,-1,-1,-1,-1,
R111_15FA5SF,440,176,916,713,82.5,27.5,0,8.22,67.32,-1,-1,-1,-1,-1,-1,-1,-1,-1,-1,-1,-1,-1,-1,
R111_30FA10SF,330,176,898,699,165,55,0,9.11,57.12,-1,-1,-1,-1,-1,-1,-1,-1,-1,-1,-1,-1,-1,-1,
R111_45FA15SF,220,176,880,685,247.5,82.5,0,8.89,50.915,-1,-1,-1,-1,-1,-1,-1,-1,-1,-1,-1,-1,-1,-1,
R111_15GGBFS5SF,440,176,927,721,0,27.5,82.5,9.78,67.66,-1,-1,-1,-1,-1,-1,-1,-1,-1,-1,-1,-1,-1,-1,
R111_30GGBFS10SF,330,176,920,716,0,55,165,10.78,74.375,-1,-1,-1,-1,-1,-1,-1,-1,-1,-1,-1,-1,-1,-1,
R111_45GGBFS15SF,220,176,912,710,0,82.5,247.5,10.22,71.825,-1,-1,-1,-1,-1,-1,-1,-1,-1,-1,-1,-1,-1,-1,
R111_10FA10GGBFS,440,176,924,720,55,0,55,8,65.365,-1,-1,-1,-1,-1,-1,-1,-1,-1,-1,-1,-1,-1,-1,
R111_20FA20GGBFS,330,176,913,711,110,0,110,7.5,52.87,-1,-1,-1,-1,-1,-1,-1,-1,-1,-1,-1,-1,-1,-1,
R111_30FA30GGBFS,220,176,903,703,165,0,165,4.44,58.905,-1,-1,-1,-1,-1,-1,-1,-1,-1,-1,-1,-1,-1,-1,
R111_7.5FA7.5GGBFS5SF,440,176,922,717,41.3,27.5,41.3,6.4,66.81,-1,-1,-1,-1,-1,-1,-1,-1,-1,-1,-1,-1,-1,-1,
R111_15FA15GGBFS10SF,330,176,909,707,82.5,55,82.5,6.48,61.795,-1,-1,-1,-1,-1,-1,-1,-1,-1,-1,-1,-1,-1,-1,
R111_22.5FA22.5GGBFS15SF,220,176,896,697,123.8,82.5,123.8,8,54.655,-1,-1,-1,-1,-1,-1,-1,-1,-1,-1,-1,-1,-1,-1,
R112_SA25VA25-A,125,172,1100,880,62.5,0,62.5,5,40.1,-1,-1,-1,-1,-1,-1,-1,-1,-1,-1,-1,-1,-1,-1,https://doi.org/10.3390/ma15248914
R112_SB25VA25-A,125,172,1100,880,62.5,0,62.5,5,36,-1,-1,-1,-1,-1,-1,-1,-1,-1,-1,-1,-1,-1,-1,
R112_SA40VA25-A,87.5,172,1100,880,62.5,0,100,5,31.8,-1,-1,-1,-1,-1,-1,-1,-1,-1,-1,-1,-1,-1,-1,
R112_SB40VA25-A,87.5,172,1100,880,62.5,0,100,5,34,-1,-1,-1,-1,-1,-1,-1,-1,-1,-1,-1,-1,-1,-1,
R112_SA25VA25-B,175,172,1100,880,87.5,0,87.5,5,52,-1,-1,-1,-1,-1,-1,-1,-1,-1,-1,-1,-1,-1,-1,
R112_SB25VA25-B,175,172,1100,880,87.5,0,87.5,5,52.5,-1,-1,-1,-1,-1,-1,-1,-1,-1,-1,-1,-1,-1,-1,
R112_SA40VA25-B,122.5,172,1100,880,87.5,0,140,5,44.1,-1,-1,-1,-1,-1,-1,-1,-1,-1,-1,-1,-1,-1,-1,
R112_SB40VA25-B,122.5,172,1100,880,87.5,0,140,5,54,-1,-1,-1,-1,-1,-1,-1,-1,-1,-1,-1,-1,-1,-1,
R113_M2,373,170,1035,697,0,0,42,2.9,48.1,-1,-1,34.1,-1,-1,-1,-1,-1,-1,-1,-1,-1,-1,-1,https://doi.org/10.1016/j.conbuildmat.2012.04.103
R113_M3,290,170,1035,697,0,0,125,2.9,47.1,-1,-1,33.3,-1,-1,-1,-1,-1,-1,-1,-1,-1,-1,-1,
R113_M4,208,170,1035,697,0,0,207,2.9,46.4,-1,-1,32,-1,-1,-1,-1,-1,-1,-1,-1,-1,-1,-1,
R114_M2,180,102.6,879,1310,0,0,90,0,70,-1,-1,-1,-1,-1,-1,-1,-1,-1,-1,-1,-1,-1,-1,https://doi.org/10.1016/j.cemconcomp.2007.09.003
R114_M5,270,111.6,833,1249,0,0,90,0,65,-1,-1,-1,-1,-1,-1,-1,-1,-1,-1,-1,-1,-1,-1,
R114_M6,270,136.8,843,1257,0,0,90,0,79.8,-1,-1,-1,-1,-1,-1,-1,-1,-1,-1,-1,-1,-1,-1,
R114_M7,180,111.6,831,1246,0,0,180,0,64.8,-1,-1,-1,-1,-1,-1,-1,-1,-1,-1,-1,-1,-1,-1,
R114_M8,180,136.8,843,1257,0,0,180,0,79.5,-1,-1,-1,-1,-1,-1,-1,-1,-1,-1,-1,-1,-1,-1,
R114_M9,360,171,808,1204,0,0,90,0,83,-1,-1,-1,-1,-1,-1,-1,-1,-1,-1,-1,-1,-1,-1,
R114_M10,270,139.5,771,1156,0,0,180,0,71,-1,-1,-1,-1,-1,-1,-1,-1,-1,-1,-1,-1,-1,-1,
R114_M11,270,171,808,1204,0,0,180,0,70,-1,-1,-1,-1,-1,-1,-1,-1,-1,-1,-1,-1,-1,-1,
R114_M12,180,139.5,768,1152,0,0,270,0,65,-1,-1,-1,-1,-1,-1,-1,-1,-1,-1,-1,-1,-1,-1,
R114_M13,180,171,808,1204,0,0,270,0,71,-1,-1,-1,-1,-1,-1,-1,-1,-1,-1,-1,-1,-1,-1,
R115_C175GGBS37.5,175,215,1135,748,0,0,37.5,0,15.385,-1,-1,-1,-1,-1,-1,-1,-1,-1,-1,-1,-1,-1,-1,https://doi.org/10.1016/j.cemconcomp.2007.01.001
R115_C175GGBS75.0,175,218,1109,731,0,0,75,0,19.975,-1,-1,-1,-1,-1,-1,-1,-1,-1,-1,-1,-1,-1,-1,
R115_C175GGBS125.0,175,223,1073,707,0,0,125,0,22.95,-1,-1,-1,-1,-1,-1,-1,-1,-1,-1,-1,-1,-1,-1,
R115_C175GGBS175.0,175,230,1033,681,0,0,175,0,23.63,-1,-1,-1,-1,-1,-1,-1,-1,-1,-1,-1,-1,-1,-1,
R115_C175GGBS225.0,175,238,991,654,0,0,225,0,23.12,-1,-1,-1,-1,-1,-1,-1,-1,-1,-1,-1,-1,-1,-1,
R115_C175GGBS275.0,175,248,948,624,0,0,275,0,21.335,-1,-1,-1,-1,-1,-1,-1,-1,-1,-1,-1,-1,-1,-1,
R115_C210GGBS45.0,210,219,1106,729,0,0,45,0,20.06,-1,-1,-1,-1,-1,-1,-1,-1,-1,-1,-1,-1,-1,-1,
R115_C210GGBS90.0,210,224,1072,707,0,0,90,0,25.5,-1,-1,-1,-1,-1,-1,-1,-1,-1,-1,-1,-1,-1,-1,
R115_C210GGBS150.0,210,231,1027,677,0,0,150,0,28.9,-1,-1,-1,-1,-1,-1,-1,-1,-1,-1,-1,-1,-1,-1,
R115_C210GGBS210.0,210,240,979,645,0,0,210,0,29.665,-1,-1,-1,-1,-1,-1,-1,-1,-1,-1,-1,-1,-1,-1,
R115_C210GGBS270.0,210,251,927,611,0,0,270,0,29.325,-1,-1,-1,-1,-1,-1,-1,-1,-1,-1,-1,-1,-1,-1,
R115_C210GGBS330.0,210,261,877,578,0,0,330,0,27.03,-1,-1,-1,-1,-1,-1,-1,-1,-1,-1,-1,-1,-1,-1,
R115_C245GGBS52.5,245,225,1073,708,0,0,52.5,0,24.65,-1,-1,-1,-1,-1,-1,-1,-1,-1,-1,-1,-1,-1,-1,
R115_C245GGBS105.0,245,230,1036,683,0,0,105,0,30.685,-1,-1,-1,-1,-1,-1,-1,-1,-1,-1,-1,-1,-1,-1,
R115_C245GGBS175.0,245,239,982,647,0,0,175,0,35.19,-1,-1,-1,-1,-1,-1,-1,-1,-1,-1,-1,-1,-1,-1,
R115_C245GGBS245.0,245,250,924,609,0,0,245,0,35.955,-1,-1,-1,-1,-1,-1,-1,-1,-1,-1,-1,-1,-1,-1,
R115_C245GGBS315.0,245,263,864,569,0,0,315,0,35.275,-1,-1,-1,-1,-1,-1,-1,-1,-1,-1,-1,-1,-1,-1,
R115_C245GGBS385.0,245,279,799,526,0,0,385,0,31.875,-1,-1,-1,-1,-1,-1,-1,-1,-1,-1,-1,-1,-1,-1,
R115_C280GGBS60.0,280,231,1041,686,0,0,60,0,28.645,-1,-1,-1,-1,-1,-1,-1,-1,-1,-1,-1,-1,-1,-1,
R115_C280GGBS120,280,236,999,659,0,0,120,0,35.53,-1,-1,-1,-1,-1,-1,-1,-1,-1,-1,-1,-1,-1,-1,
R115_C280GGBS200,280,247,936,617,0,0,200,0,40.375,-1,-1,-1,-1,-1,-1,-1,-1,-1,-1,-1,-1,-1,-1,
R115_C280GGBS280,280,263,866,570,0,0,280,0,41.14,-1,-1,-1,-1,-1,-1,-1,-1,-1,-1,-1,-1,-1,-1,
R115_C280GGBS360,280,278,796,525,0,0,360,0,39.95,-1,-1,-1,-1,-1,-1,-1,-1,-1,-1,-1,-1,-1,-1,
R115_C280GGBS440,280,295,723,477,0,0,440,0,36.295,-1,-1,-1,-1,-1,-1,-1,-1,-1,-1,-1,-1,-1,-1,
R116_HFAC,300,140,1135,644,200,0,0,1.5,55.42,-1,-1,-1,-1,-1,-1,-1,-1,-1,-1,-1,-1,-1,-1,https://doi.org/10.1016/S0958-9465(02)00058-6
R116_GGFAC,300,140,1140,647,125,0,75,2,68.51,-1,-1,-1,-1,-1,-1,-1,-1,-1,-1,-1,-1,-1,-1,
R117_20BFS,288,190.8,1108,673.5,0,0,72,0,31.5435,-1,-1,-1,-1,-1,-1,-1,-1,-1,-1,-1,-1,-1,-1,https://doi.org/10.1016/j.proeng.2015.06.145
R117_30BFS,252,183.6,1108,673.5,0,0,108,0,31.0845,-1,-1,-1,-1,-1,-1,-1,-1,-1,-1,-1,-1,-1,-1,
R117_40BFS,216,183.6,1108,673.5,0,0,144,0,29.1635,-1,-1,-1,-1,-1,-1,-1,-1,-1,-1,-1,-1,-1,-1,
R118_30GGBS,320,160,1285,500,0,0,137,3.84,58.5,-1,7,40.5,-1,-1,-1,-1,-1,-1,-1,-1,-1,-1,-1,https://doi.org/10.1007/s12046-017-0667-z
R118_40GGBS,274,160,1285,500,0,0,183,3.29,58,-1,7,41,-1,-1,-1,-1,-1,-1,-1,-1,-1,-1,-1,
R118_50GGBS,229,160,1285,500,0,0,228,2.75,54,-1,7,40,-1,-1,-1,-1,-1,-1,-1,-1,-1,-1,-1,
R119_2,262.87,197.1,1139.1,657.19,0,46.81,159.32,0,27.56,2.76,5.3,-1,-1,-1,-1,-1,-1,-1,-1,-1,-1,-1,-1,https://doi.org/10.1016/j.matpr.2020.08.733
R119_3,219.06,197.1,1139.1,657.19,0,46.58,199.15,0,28.8,3.43,6.28,-1,-1,-1,-1,-1,-1,-1,-1,-1,-1,-1,-1,
R119_4,175.25,197.1,1139.1,657.19,0,46.14,238.99,0,26.1,3.12,5.1,-1,-1,-1,-1,-1,-1,-1,-1,-1,-1,-1,-1,
R120_MS5,513,174.42,817.56,828.36,0,27,0,5.4,48.875,-1,-1,-1,-1,-1,-1,-1,-1,-1,-1,-1,-1,-1,-1,https://doi.org/10.1016/j.conbuildmat.2018.03.186
R120_MS10,486,165.24,817.56,828.36,0,54,0,4.86,55.25,4.8,-1,-1,-1,-1,-1,-1,-1,-1,-1,-1,-1,-1,-1,
R120_MS15,459,156.06,817.56,828.36,0,81,0,4.32,44.71,-1,-1,-1,-1,-1,-1,-1,-1,-1,-1,-1,-1,-1,-1,
R120_MA5,513,174.42,817.56,828.36,0,0,27,4.32,49.3,-1,-1,-1,-1,-1,-1,-1,-1,-1,-1,-1,-1,-1,-1,
R120_MA10,486,165.24,817.56,828.36,0,0,54,4.32,53.125,4.47,-1,-1,-1,-1,-1,-1,-1,-1,-1,-1,-1,-1,-1,
R120_MA15,459,156.06,817.56,828.36,0,0,81,4.32,51,-1,-1,-1,-1,-1,-1,-1,-1,-1,-1,-1,-1,-1,-1,
R121_2,400,150,1147,703,100,0,0,7.5,67.405,-1,-1,-1,-1,-1,-1,-1,-1,-1,-1,-1,-1,-1,-1,https://doi.org/10.1016/S0008-8846(98)00158-6
R121_3,400,150,1147,703,0,0,100,7.5,67.915,-1,-1,-1,-1,-1,-1,-1,-1,-1,-1,-1,-1,-1,-1,
R121_4,400,150,1147,703,50,0,50,7.5,68.595,-1,-1,-1,-1,-1,-1,-1,-1,-1,-1,-1,-1,-1,-1,
R121_5,467,150,1147,703,0,33,0,7.5,69.02,-1,-1,-1,-1,-1,-1,-1,-1,-1,-1,-1,-1,-1,-1,
R122_FA15,442,288.96,678,984,78,0,0,4.16,33.745,3.75,-1,-1,-1,-1,-1,-1,-1,-1,-1,-1,-1,-1,-1,https://doi.org/10.1016/j.conbuildmat.2019.04.149
R122_FA15S2,431.6,288.96,678,984,78,10.4,0,4.16,29.75,3.5,-1,-1,-1,-1,-1,-1,-1,-1,-1,-1,-1,-1,-1,
R122_FA15S4,421.2,288.96,678,984,78,20.8,0,4.16,34.085,4.15,-1,-1,-1,-1,-1,-1,-1,-1,-1,-1,-1,-1,-1,
R122_FA15S6,410.8,288.96,678,984,78,31.2,0,4.16,31.705,3.35,-1,-1,-1,-1,-1,-1,-1,-1,-1,-1,-1,-1,-1,
R122_FA15G10,390,288.96,678,984,78,0,52,4.16,32.47,3.18,-1,-1,-1,-1,-1,-1,-1,-1,-1,-1,-1,-1,-1,
R122_FA15G20,338,288.96,678,984,78,0,104,4.16,30.6,3.8,-1,-1,-1,-1,-1,-1,-1,-1,-1,-1,-1,-1,-1,
R122_FA15G30,286,288.96,678,984,78,0,156,4.16,35.87,4,-1,-1,-1,-1,-1,-1,-1,-1,-1,-1,-1,-1,-1,
R123_01,312,195,1200,710,0,0,71,0,29.75,3.05,3.79,-1,-1,-1,-1,-1,-1,-1,-1,-1,-1,-1,-1,https://doi.org/10.1016/j.conbuildmat.2017.10.118
R123_02,234,195,1200,710,0,0,142,0,28.6875,2.9,3.66,-1,-1,-1,-1,-1,-1,-1,-1,-1,-1,-1,-1,
R123_03,156,195,1200,710,0,0,212,0,24.65,2.8,3.57,-1,-1,-1,-1,-1,-1,-1,-1,-1,-1,-1,-1,
R123_11,312,203,1174,710,0,0,71,0,28.9,2.86,3.7,-1,-1,-1,-1,-1,-1,-1,-1,-1,-1,-1,-1,
R123_12,234,203,1174,710,0,0,142,0,27.625,2.72,3.6,-1,-1,-1,-1,-1,-1,-1,-1,-1,-1,-1,-1,
R123_13,156,203,1174,710,0,0,212,0,24.225,2.57,3.45,-1,-1,-1,-1,-1,-1,-1,-1,-1,-1,-1,-1,
R123_21,312,207,1148,710,0,0,71,0,27.625,2.81,3.65,-1,-1,-1,-1,-1,-1,-1,-1,-1,-1,-1,-1,
R123_22,234,207,1148,710,0,0,142,0,27.54,2.72,3.55,-1,-1,-1,-1,-1,-1,-1,-1,-1,-1,-1,-1,
R123_23,156,207,1148,710,0,0,212,0,23.8,2.55,3.45,-1,-1,-1,-1,-1,-1,-1,-1,-1,-1,-1,-1,
R123_31,312,215,1096,710,0,0,71,0,23.545,2.66,3.55,-1,-1,-1,-1,-1,-1,-1,-1,-1,-1,-1,-1,
R123_32,234,215,1096,710,0,0,142,0,22.525,2.56,3.4,-1,-1,-1,-1,-1,-1,-1,-1,-1,-1,-1,-1,
R123_33,156,215,1096,710,0,0,212,0,20.4,2.36,3.15,-1,-1,-1,-1,-1,-1,-1,-1,-1,-1,-1,-1,
R124_FS50S35,273,168,1150,692,0,0,147,2.9,67.91,-1,8.35,-1,-1,-1,-1,-1,215,260,275,-1,-1,-1,-1,https://doi.org/10.1016/j.conbuildmat.2022.128512
R124_FS100S35,273,168,1150,688,0,0,147,2.9,62.34,-1,7.72,-1,-1,-1,-1,-1,225,285,300,-1,-1,-1,-1,
R125_M-1,360,203,1040,482,0,0,90,4.95,28.7,2.95,-1,12.5,-1,-1,-1,-1,-1,-1,-1,-1,-1,-1,-1,https://doi.org/10.1016/j.jare.2011.03.004
R125_M-2,270,203,1040,482,0,0,180,4.95,26.5,2.76,-1,9.5,-1,-1,-1,-1,-1,-1,-1,-1,-1,-1,-1,
R125_M-3,180,203,1040,482,0,0,270,4.95,25,2.74,-1,9.4,-1,-1,-1,-1,-1,-1,-1,-1,-1,-1,-1,
R126_M2A,435,154,1098,772,0,43.5,0,4.31,44.03,-1,-1,-1,-1,-1,-1,-1,-1,-1,-1,-1,-1,-1,-1,https://doi.org/10.1016/j.matpr.2021.06.343
R126_M2B,435,154,1098,772,0,65.2,0,4.31,44.625,-1,-1,-1,-1,-1,-1,-1,-1,-1,-1,-1,-1,-1,-1,
R126_M2C,435,154,1098,772,0,87,0,4.31,45.645,-1,-1,-1,-1,-1,-1,-1,-1,-1,-1,-1,-1,-1,-1,
R126_M3A,435,154,1098,772,0,0,43.5,4.31,40.205,-1,-1,-1,-1,-1,-1,-1,-1,-1,-1,-1,-1,-1,-1,
R126_M3B,435,154,1098,772,0,0,87,4.31,41.565,-1,-1,-1,-1,-1,-1,-1,-1,-1,-1,-1,-1,-1,-1,
R126_M3C,435,154,1098,772,0,0,174,4.31,42.415,-1,-1,-1,-1,-1,-1,-1,-1,-1,-1,-1,-1,-1,-1,
R127_GGBS,324,180,1160,681,0,0,36,0,29.75,-1,-1,-1,-1,-1,-1,-1,-1,-1,-1,-1,-1,-1,-1,https://doi.org/10.1016/j.jmrt.2013.03.010
R128_GS20,360,157.5,1105.5,737,0,0,90,2.6,48.7,-1,-1,-1,-1,-1,-1,-1,-1,-1,-1,-1,-1,-1,-1,https://doi.org/10.1007/s11431-012-5027-y
R128_GS30,315,157.5,1105.5,737,0,0,135,2.5,50,-1,-1,-1,-1,-1,-1,-1,-1,-1,-1,-1,-1,-1,-1,
R128_GS40,270,157.5,1105.5,737,0,0,180,3,26.4,-1,-1,-1,-1,-1,-1,-1,-1,-1,-1,-1,-1,-1,-1,
R128_SF5,427.5,157.5,1105.5,737,0,22.5,0,3.2,54,-1,-1,-1,-1,-1,-1,-1,-1,-1,-1,-1,-1,-1,-1,
R128_SF10,405,157.5,1105.5,737,0,45,0,3.3,58.6,-1,-1,-1,-1,-1,-1,-1,-1,-1,-1,-1,-1,-1,-1,
R129_5SF,427.5,112.5,1432.8,445.73,0,22.5,0,18,91.16,-1,-1,38.88,-1,-1,-1,-1,-1,-1,-1,-1,-1,-1,-1,http://dx.doi.org/10.1016/j.conbuildmat.2013.08.091
R129_10SF,405,112.5,1427.87,444.19,0,45,0,15.75,96.29,-1,-1,41.55,-1,-1,-1,-1,-1,-1,-1,-1,-1,-1,-1,
R129_15SF,382.5,112.5,1422.93,442.66,0,67.5,0,15.75,103.95,-1,-1,43.03,-1,-1,-1,-1,-1,-1,-1,-1,-1,-1,-1,
R129_20SF,360,112.5,1417.99,441.12,0,90,0,13.5,98.46,-1,-1,40.35,-1,-1,-1,-1,-1,-1,-1,-1,-1,-1,-1,
R129_25SF,337.5,112.5,1413.05,439.59,0,112.5,0,13.5,84.88,-1,-1,35.15,-1,-1,-1,-1,-1,-1,-1,-1,-1,-1,-1,
R130_SF5,427.5,126,1125,675,0,22.5,0,14,89.845,-1,-1,46.08,-1,-1,-1,-1,-1,-1,-1,-1,-1,-1,-1,https://doi.org/10.1016/j.conbuildmat.2010.12.013
R130_SF10,405,126,1125,675,0,45,0,14,96.815,-1,-1,47.06,-1,-1,-1,-1,-1,-1,-1,-1,-1,-1,-1,
R130_SF15,382.5,126,1125,675,0,67.5,0,14,99.875,-1,-1,48.26,-1,-1,-1,-1,-1,-1,-1,-1,-1,-1,-1,
R130_FA10,405,126,1125,675,45,0,0,14,72.845,-1,-1,43.74,-1,-1,-1,-1,-1,-1,-1,-1,-1,-1,-1,
R130_FA20,360,126,1125,675,90,0,0,14,71.655,-1,-1,43.06,-1,-1,-1,-1,-1,-1,-1,-1,-1,-1,-1,
R130_FA30,315,126,1125,675,135,0,0,14,69.785,-1,-1,42.36,-1,-1,-1,-1,-1,-1,-1,-1,-1,-1,-1,
R130_GGBS20,360,126,1125,675,0,0,90,14,81.005,-1,-1,45.04,-1,-1,-1,-1,-1,-1,-1,-1,-1,-1,-1,
R130_GGBS40,270,126,1125,675,0,0,180,14,74.46,-1,-1,44.84,-1,-1,-1,-1,-1,-1,-1,-1,-1,-1,-1,
R130_GGBS60,180,126,1125,675,0,0,270,14,73.695,-1,-1,43.09,-1,-1,-1,-1,-1,-1,-1,-1,-1,-1,-1,
R131_1M2,180,135,895,895,270,0,0,1,67.19,-1,-1,-1,-1,-1,-1,-1,-1,-1,-1,-1,-1,-1,-1,http://dx.doi.org/10.1016/j.conbuildmat.2013.05.062
R131_1M3,180,135,895,895,225,45,0,1.429,62.85,-1,-1,-1,-1,-1,-1,-1,-1,-1,-1,-1,-1,-1,-1,
R131_1M4,135,135,895,895,135,45,135,1.571,66.69,-1,-1,-1,-1,-1,-1,-1,-1,-1,-1,-1,-1,-1,-1,
R131_1M5,135,135,895,895,0,0,315,1.286,78.09,-1,-1,-1,-1,-1,-1,-1,-1,-1,-1,-1,-1,-1,-1,
R131_1M6,135,135,895,895,0,45,270,2.429,82.47,-1,-1,-1,-1,-1,-1,-1,-1,-1,-1,-1,-1,-1,-1,
R131_1M7,180,135,895,895,270,0,0,1.143,46.34,-1,-1,-1,-1,-1,-1,-1,-1,-1,-1,-1,-1,-1,-1,
R131_1M8,180,135,895,895,225,45,0,2.929,60.25,-1,-1,-1,-1,-1,-1,-1,-1,-1,-1,-1,-1,-1,-1,
R131_1M9,135,135,895,895,135,45,135,2.571,76.75,-1,-1,-1,-1,-1,-1,-1,-1,-1,-1,-1,-1,-1,-1,
R131_2M3,180,135,875,875,225,45,0,1.286,56.56,-1,-1,-1,-1,-1,-1,-1,-1,-1,-1,-1,-1,-1,-1,
R131_2M4,135,135,875,875,135,45,135,1.286,59.33,-1,-1,-1,-1,-1,-1,-1,-1,-1,-1,-1,-1,-1,-1,
R131_2M5,135,135,875,875,0,0,315,1,66.85,-1,-1,-1,-1,-1,-1,-1,-1,-1,-1,-1,-1,-1,-1,
R131_2M6,135,135,875,875,0,45,270,1.857,66.96,-1,-1,-1,-1,-1,-1,-1,-1,-1,-1,-1,-1,-1,-1,
R131_2M8,180,135,875,875,225,45,0,2.357,50.64,-1,-1,-1,-1,-1,-1,-1,-1,-1,-1,-1,-1,-1,-1,
R131_2M9,135,135,875,875,135,45,135,2.714,65.64,-1,-1,-1,-1,-1,-1,-1,-1,-1,-1,-1,-1,-1,-1,
R132_2,427.4,214,1212,520,23.8,0,23.8,0,40.375,-1,-1,-1,-1,-1,-1,-1,-1,-1,-1,-1,-1,-1,-1,https://doi.org/10.1016/j.conbuildmat.2023.133669
R132_3,380,214,1212,520,47.5,0,47.5,0,39.984,-1,-1,-1,-1,-1,-1,-1,-1,-1,-1,-1,-1,-1,-1,
R132_4,332.4,214,1212,520,71.3,0,71.3,0,36.465,-1,-1,-1,-1,-1,-1,-1,-1,-1,-1,-1,-1,-1,-1,
R132_5,427.4,214,1212,520,23.8,23.8,0,0,36.856,-1,-1,-1,-1,-1,-1,-1,-1,-1,-1,-1,-1,-1,-1,
R132_6,427.4,214,1212,520,0,23.8,23.8,0,42.7465,-1,-1,-1,-1,-1,-1,-1,-1,-1,-1,-1,-1,-1,-1,
R132_7,332.4,214,1212,520,71.3,23.8,47.5,0,35.751,-1,-1,-1,-1,-1,-1,-1,-1,-1,-1,-1,-1,-1,-1,
R132_8,332.4,214,1212,520,47.5,23.8,71.3,0,41.3865,-1,-1,-1,-1,-1,-1,-1,-1,-1,-1,-1,-1,-1,-1,
R132_9,380,214,1212,520,47.5,47.5,0,0,36.3885,-1,-1,-1,-1,-1,-1,-1,-1,-1,-1,-1,-1,-1,-1,
R132_10,332.4,214,1212,520,71.3,47.5,23.8,0,34.8075,-1,-1,-1,-1,-1,-1,-1,-1,-1,-1,-1,-1,-1,-1,
R132_11,380,214,1212,520,0,47.5,47.5,0,43.6135,-1,-1,-1,-1,-1,-1,-1,-1,-1,-1,-1,-1,-1,-1,
R132_12,332.4,214,1212,520,23.8,47.5,71.3,0,45.5855,-1,-1,-1,-1,-1,-1,-1,-1,-1,-1,-1,-1,-1,-1,
R132_13,332.4,214,1212,520,71.3,71.3,0,0,33.626,-1,-1,-1,-1,-1,-1,-1,-1,-1,-1,-1,-1,-1,-1,
R132_14,332.4,214,1212,520,47.5,71.3,23.8,0,36.312,-1,-1,-1,-1,-1,-1,-1,-1,-1,-1,-1,-1,-1,-1,
R132_15,332.4,214,1212,520,23.8,71.3,47.5,0,42.6955,-1,-1,-1,-1,-1,-1,-1,-1,-1,-1,-1,-1,-1,-1,
R132_16,332.4,214,1212,520,0,71.3,71.3,0,39.491,-1,-1,-1,-1,-1,-1,-1,-1,-1,-1,-1,-1,-1,-1,
R133_CM0EAF0,300,160,1137,741,0,0,100,0,41.65,4.16,5.02,34.5,2465,-1,-1,-1,-1,-1,-1,-1,-1,-1,-1,https://doi.org/10.1016/j.conbuildmat.2023.134673
R133_MS0EAF50,300,160,1246,741,0,0,100,0,43.775,4.2,5.23,35.73,2508,-1,-1,-1,-1,-1,-1,-1,-1,-1,-1,
R133_MS0EAF100,300,160,1356,741,0,0,100,0,44.625,4.3,5.35,36.09,2594,-1,-1,-1,-1,-1,-1,-1,-1,-1,-1,
R134_10FA,495,137.5,856.9,856.9,55,0,0,23.4,61.03,-1,-1,-1,-1,-1,-1,-1,-1,-1,-1,-1,-1,-1,-1,https://doi.org/10.1016/j.jksues.2020.12.005
R134_20FA,440,137.5,848.8,848.8,110,0,0,22.3,55.25,-1,-1,-1,-1,-1,-1,-1,-1,-1,-1,-1,-1,-1,-1,
R134_30FA,385,137.5,840.2,840.2,165,0,0,21.7,51,-1,-1,-1,-1,-1,-1,-1,-1,-1,-1,-1,-1,-1,-1,
R134_40FA,330,137.5,831.8,831.8,220,0,0,20.9,46.75,-1,-1,-1,-1,-1,-1,-1,-1,-1,-1,-1,-1,-1,-1,
R134_50FA,275,137.5,824,824,275,0,0,19.5,44.2,-1,-1,-1,-1,-1,-1,-1,-1,-1,-1,-1,-1,-1,-1,
R134_60FA,220,137.5,815.7,815.7,330,0,0,18.7,38.25,-1,-1,-1,-1,-1,-1,-1,-1,-1,-1,-1,-1,-1,-1,
R134_10S,495,137.5,840.3,840.3,0,0,55,23.1,68,-1,-1,-1,-1,-1,-1,-1,-1,-1,-1,-1,-1,-1,-1,
R134_20S,440,137.5,815.4,815.4,0,0,110,22,69.445,-1,-1,-1,-1,-1,-1,-1,-1,-1,-1,-1,-1,-1,-1,
R134_30S,385,137.5,790.2,790.2,0,0,165,21.2,70.125,-1,-1,-1,-1,-1,-1,-1,-1,-1,-1,-1,-1,-1,-1,
R134_40S,330,137.5,765.3,765.3,0,0,220,20.1,71.91,-1,-1,-1,-1,-1,-1,-1,-1,-1,-1,-1,-1,-1,-1,
R134_50S,275,137.5,740.3,740.3,0,0,275,19,65.875,-1,-1,-1,-1,-1,-1,-1,-1,-1,-1,-1,-1,-1,-1,
R134_60S,220,137.5,715.1,715.1,0,0,330,18.2,59.5,-1,-1,-1,-1,-1,-1,-1,-1,-1,-1,-1,-1,-1,-1,
R134_5FA5S,495,137.5,849,849,27.5,0,27.5,22.8,68.51,-1,-1,-1,-1,-1,-1,-1,-1,-1,-1,-1,-1,-1,-1,
R134_10FA10S,440,137.5,832.9,832.9,55,0,55,21.5,71.23,-1,-1,-1,-1,-1,-1,-1,-1,-1,-1,-1,-1,-1,-1,
R134_15FA15S,385,137.5,816.1,816.1,82.5,0,82.5,20.6,72.42,-1,-1,-1,-1,-1,-1,-1,-1,-1,-1,-1,-1,-1,-1,
R134_20FA20S,330,137.5,799.6,799.6,110,0,110,19.5,68,-1,-1,-1,-1,-1,-1,-1,-1,-1,-1,-1,-1,-1,-1,
R134_25FA25S,275,137.5,783.1,783.1,137.5,0,137.5,18.4,62.9,-1,-1,-1,-1,-1,-1,-1,-1,-1,-1,-1,-1,-1,-1,
R134_30FA30S,220,137.5,766,766,165,0,165,17.9,55.25,-1,-1,-1,-1,-1,-1,-1,-1,-1,-1,-1,-1,-1,-1,
R135_CSF8,181.44,197,1014.85,797.38,0,7.8,0,0,27.455,3.43,-1,-1,-1,-1,-1,-1,-1,-1,-1,-1,-1,-1,-1,https://doi.org/10.1016/j.matpr.2023.05.364
R135_CSF10,178.56,197,1011.93,795.09,0,9.75,0,0,29.0275,3.52,-1,-1,-1,-1,-1,-1,-1,-1,-1,-1,-1,-1,-1,
R135_CSF12,174.24,197,1010.55,794,0,11.7,0,0,25.5,3.48,-1,-1,-1,-1,-1,-1,-1,-1,-1,-1,-1,-1,-1,
R135_CSG25,148.32,197,1015.77,798.1,0,0,45.6,0,25.415,3.42,-1,-1,-1,-1,-1,-1,-1,-1,-1,-1,-1,-1,-1,
R135_CSG30,138.24,197,1014.85,797.38,0,0,54.72,0,27.71,3.49,-1,-1,-1,-1,-1,-1,-1,-1,-1,-1,-1,-1,-1,
R135_CSG35,128.16,197,1013.93,796.66,0,0,63.84,0,23.8,3.44,-1,-1,-1,-1,-1,-1,-1,-1,-1,-1,-1,-1,-1,
R136_MPEG_S0,243,116.64,1009,1127,0,0,243,14.55,61.2,-1,9.8,-1,-1,-1,-1,113,190.65,332.13,-1,-1,-1,-1,-1,https://doi.org/10.1016/j.jobe.2020.101412
R136_MPEG_S12,243,130.95,981,1095,0,58,184,14.55,66.3,-1,10.2,-1,-1,-1,-1,-1,-1,-1,-1,-1,-1,-1,-1,
R136_TPEG_S0,243,116.64,1009,1127,0,0,243,14.55,66.3,-1,13,-1,-1,-1,-1,96.5,207.52,280.84,-1,-1,-1,-1,-1,
R136_TPEG_S12,243,130.95,981,1095,0,58,184,14.55,70.125,-1,12.5,-1,-1,-1,-1,-1,-1,-1,-1,-1,-1,-1,-1,
R136_MPEGandTPEG_S0,243,126.36,996,1112,0,0,243,14.55,55.25,-1,9.8,-1,-1,-1,-1,53.02,97.79,234.09,-1,-1,-1,-1,-1,
R136_MPEGandTPEG_S12,243,135.8,974,1087,0,58,184,14.55,61.2,-1,10.2,-1,-1,-1,-1,-1,-1,-1,-1,-1,-1,-1,-1,
,,,,,,,,,,,,,,,,,,,,,,,,
,,,,,,,,,,,,,,,,,,,,,,,,
,,,,,,,,,,,,,,,,,,,,,,,,
,,,,,,,,,,,,,,,,,,,,,,,,
,,,,,,,,,,,,,,,,,,,,,,,,
,,,,,,,,,,,,,,,,,,,,,,,,